time,seconds_elapsed,z,y,x
1779786621036473600,0.0694736328125,-0.4713707268029451,-0.6131266374021768,-0.11028393688425421
1779786621046555400,0.079555419921875,-0.4352478585422039,-0.5503934101134539,-0.11105967049710452
1779786621056636700,0.08963671875,-0.25277181501984597,-0.404124406003952,-0.10853110186755656
1779786621066718500,0.099718505859375,0.010035071802139282,-0.1680517968505621,-0.1135255491539836
1779786621076800500,0.109800537109375,0.2358475682258606,-0.008970657441020012,-0.15289828605614603
1779786621086881300,0.11988134765625,0.2955389436006546,0.048421793341636654,-0.19025434937365351
1779786621096963300,0.12996337890625,0.1742909835010767,0.08723463133871555,-0.21361206328123808
1779786621107045400,0.14004541015625,0.021228665989637373,0.10066343723237514,-0.2555008015923202
1779786621117126400,0.15012646484375,-0.046828386670351024,0.12258242357373236,-0.22712248304374516
1779786621127208400,0.16020849609375,-0.05556348178982734,0.14870295325815677,-0.14488047236055135
1779786621137290500,0.17029052734375,-0.06832184107601642,0.1553589040160179,-0.0799581375297159
1779786621147371500,0.18037158203125,-0.03605097206830978,0.17491934453248978,-0.001893266400694847
1779786621157453600,0.19045361328125,0.1441828454852104,0.17251579052209853,0.06940276818051934
1779786621167534600,0.20053466796875,0.45118601690828797,0.1652799940496683,0.060477338120713826
1779786621177616600,0.21061669921875,0.736886288061738,0.18858721987903118,0.08457695643678308
1779786621187698700,0.22069873046875,0.8831050232887268,0.20781682100594043,0.06091251466758549
1779786621197779500,0.230779541015625,0.9090139560490846,0.21077450176775453,0.0018459201276302337
1779786621207861500,0.240861572265625,0.8136836965382098,0.05233107573986053,0.015844780994206668
1779786621217943600,0.250943603515625,0.6288181275308132,0.1066080248504877,-0.08045417741835117
1779786621228024600,0.261024658203125,0.41014322790205476,0.16586568498313425,-0.08624225930050015
1779786621238106400,0.2711064453125,0.18193945242762566,0.20454817459881305,-0.1272300301838666
1779786621248188400,0.2811884765625,0.15687866092920302,0.1564882003068924,-0.1451880039397627
1779786621258269400,0.29126953125,0.252079741102457,0.0802519328445196,-0.06134286890886723
1779786621268351500,0.3013515625,0.38354982000887394,-0.018185645031929015,0.030664675920084115
1779786621278433500,0.31143359375,0.47449382725954053,-0.09815291571617125,0.17879603983536363
1779786621288514600,0.3215146484375,0.5989794541060924,-0.14614625451266763,0.26977102674618364
1779786621298596600,0.3315966796875,0.7437801392287016,-0.14792086296975612,0.27478169451504947
1779786621308678700,0.3416787109375,0.8359890518486499,-0.18158289407491682,0.19827588939629495
1779786621318759400,0.351759521484375,0.8052771027207374,-0.2771253350317478,0.10887860013097524
1779786621328841500,0.361841552734375,0.7304524556219577,-0.33875264690518375,0.023020517842471597
1779786621338923500,0.371923583984375,0.6681932755857706,-0.2992167553305626,-0.020089725087583065
1779786621349004500,0.382004638671875,0.5239560695648193,-0.2412847908437252,-0.03765365802459419
1779786621359086600,0.392086669921875,0.35306700346171854,-0.21545243045091628,0.00641914632730186
1779786621369168600,0.402168701171875,0.21615034958720206,-0.26475860541164875,0.09014657326266169
1779786621379249700,0.412249755859375,0.08896540065407753,-0.2919377042382955,0.24058497201129792
1779786621389331500,0.42233154296875,-0.0665758741915226,-0.3536147004723549,0.37053982404917474
1779786621399413500,0.43241357421875,-0.14111761269569395,-0.5000970550715923,0.4657219803262502
1779786621409494500,0.44249462890625,-0.007129998010396957,-0.5733534299403429,0.5092587050400674
1779786621419576300,0.452576416015625,0.24608605364561079,-0.5249713840872049,0.3430679528210312
1779786621429658400,0.462658447265625,0.5429582916766404,-0.4611626365214586,0.19583017674461006
1779786621439739400,0.472739501953125,0.7074532728284597,-0.4176636865347624,0.12013926820531487
1779786621449821400,0.482821533203125,0.7397498607993126,-0.4185977525144815,0.038085692766308785
1779786621459903500,0.492903564453125,0.5347790768742561,-0.4127303217858076,0.0719292909834534
1779786621469984500,0.502984619140625,0.29923136837780473,-0.3959329162418842,0.10274930359572172
1779786621480066600,0.513066650390625,0.23572364958524702,-0.3871592426776886,0.061676703973114484
1779786621490148600,0.523148681640625,-0.03436053476333618,-0.2056090818285942,0.21488157176040112
1779786621500229600,0.533229736328125,-0.1703863772779703,-0.06395020186305046,-0.011228884696587919
1779786621510311700,0.543311767578125,-0.12626140434741973,-0.00940378816127777,-0.024337957116588947
1779786621520393700,0.553393798828125,-0.22076105825304984,-0.047182606935501095,0.054946847728826104
1779786621530474500,0.563474609375,0.08769231197834014,-0.1425543675005436,0.022358619867637753
1779786621540556500,0.573556640625,0.2806710448145866,-0.23845336681008336,0.10127254557404666
1779786621550638300,0.583638427734375,0.09960895974338053,-0.328420053461194,0.24507976267989723
1779786621560719600,0.5937197265625,-0.05505202513635158,-0.32417525549829,0.21097634448278693
1779786621570801400,0.603801513671875,-0.12771335672140122,-0.15338672716021537,-0.041668738884851335
1779786621580882400,0.61388232421875,0.058872460207343096,0.043727498045563695,-0.3048371524956077
1779786621590964500,0.623964599609375,0.10921265439093113,0.16447627645134924,-0.34862007052283733
1779786621601046500,0.634046630859375,-0.11054828690886497,0.1826952392309904,-0.38379268885403867
1779786621611127600,0.64412744140625,-0.08524842595756053,0.01645955189168453,-0.19730408522207288
1779786621621209600,0.654209716796875,-0.3296411196887493,-0.20945231325328348,-0.01259615446180105
1779786621631291600,0.664291748046875,-0.645433746767044,-0.2790437358736992,0.05181231256276369
1779786621641372400,0.674372314453125,-0.8602168996542692,0.12052139939069748,0.021005780486576257
1779786621651454500,0.684454345703125,-0.6007493863880634,0.5403671061396599,-0.23532252143844962
1779786621661536500,0.69453662109375,0.010568155765533447,0.5071849675059318,-0.43329391146283597
1779786621671617500,0.704617431640625,0.5869540852695703,0.6131161160081625,-0.3330564445575699
1779786621681699600,0.714699462890625,0.8921510840535163,0.6711942109674215,-0.42104704536274074
1779786621691781600,0.72478173828125,0.992653193244338,0.5446762015104294,-0.47862325521446764
1779786621701862700,0.734862548828125,0.7018728423476219,0.24352292515933513,-0.39850313205607235
1779786621711944700,0.74494482421875,0.14128712404370308,-0.19005670790970325,-0.12436762649007141
1779786621722026500,0.755026611328125,-0.209555773627758,-0.3345516880840063,0.27538484803996977
1779786621732107500,0.765107421875,-0.20481647014617918,-0.05867547633051872,0.40230720051415264
1779786621742189300,0.775189208984375,0.09135317257344722,0.21636370007693767,0.32584954538606103
1779786621752271400,0.785271240234375,0.5076864872872829,0.21983576010167596,0.11205430755764245
1779786621762352400,0.795352294921875,0.6602911241590976,0.07129471940696239,0.09920045200772583
1779786621772434400,0.805434326171875,0.5872060142040252,-0.10705635313987731,0.3099219084139913
1779786621782516500,0.8155166015625,0.512384289714694,-0.0631903234064579,0.33949696246646344
1779786621792597500,0.825597412109375,0.39109482856094835,0.03220481803417206,0.23724610991217196
1779786621802679600,0.835679443359375,0.2874871545702219,0.0672422291457653,0.10356032771766185
1779786621812761600,0.84576171875,0.13871873486042022,0.10463409442901611,0.053644277230277655
1779786621822842600,0.855842529296875,0.10012216996252536,0.08712123409211635,-0.004397577371820807
1779786621832924700,0.865924560546875,0.15806465584337712,0.12065350133776664,0.0025685353137552738
1779786621843007000,0.876007080078125,0.16172376287281512,0.17015198400020598,-0.015090090169385074
1779786621853088300,0.886088134765625,0.09533785829544067,0.28672669159173964,-0.08272299913316965
1779786621863170000,0.896170166015625,0.05079612125754356,0.4199678718239069,-0.13560031057894228
1779786621873252000,0.906252197265625,-0.06363631360828877,0.2456020695209503,-0.02835135747641325
1779786621883333000,0.9163330078125,-0.34339316618740556,0.17387889556884764,0.11839205921180546
1779786621893415200,0.926415283203125,-0.48978141276240345,0.04819967502355575,0.2445589902088046
1779786621903496000,0.936495849609375,-0.5222603715628386,-0.13445230958759785,0.33565650752075016
1779786621913578000,0.946577880859375,-0.5633721341520548,-0.24781682296097277,0.38555845641754566
1779786621923660000,0.956659912109375,-0.579186958399415,-0.21183774708509445,0.324826120622456
1779786621933741000,0.966740966796875,-0.44412440795898434,-0.05682955620288849,0.14480835697241126
1779786621943823000,0.976822998046875,-0.20665420696735382,0.047964697223901745,-0.06808138338364661
1779786621953905200,0.9869052734375,-0.020047347250580785,0.10953881760537623,-0.19673698939122258
1779786621963986200,0.996986083984375,0.1401753634095192,0.05587152482569217,-0.2764746891032904
1779786621974068200,1.007068115234375,0.28602468080222604,-0.057308864152431485,-0.26288258240669965
1779786621984150300,1.017150390625,0.31277415603995323,-0.17742226726412771,-0.2505193599179387
1779786621994231300,1.027231201171875,0.38247546877563,-0.200223297137022,-0.19038082529753445
1779786622004313300,1.037313232421875,0.5638403361856937,-0.11104513051509857,-0.18270627208165824
1779786622014395100,1.04739501953125,0.7566004578351974,-0.0024649288088083266,-0.2407379706159234
1779786622024476200,1.05747607421875,0.8226268814504146,0.005375847819447517,-0.21717165545895695
1779786622034558000,1.067557861328125,0.7141419568121433,-0.08973989215791225,-0.1140643322058022
1779786622044640000,1.077639892578125,0.47209261133670805,-0.27106208947002886,0.08138999696373939
1779786622054721000,1.087720947265625,0.29300036503374577,-0.4169745352268219,0.2082857536919415
1779786622064803000,1.097802978515625,0.24535540128350256,-0.3562374501913786,0.17801855265684424
1779786622074885000,1.107885009765625,0.3476572533726692,-0.10703414130806922,0.11490187900848686
1779786622084966100,1.117966064453125,0.5550526340961456,0.11780512616932391,0.0012483926258981227
1779786622095048200,1.128048095703125,0.5802390978008508,0.20357143852114676,-0.01809022183343768
1779786622105130200,1.138130126953125,0.411636681330204,0.20607611481845378,0.05280388088338077
1779786622115211300,1.148211181640625,0.0931447321653366,0.16051555612683296,0.1269205989085138
1779786622125293300,1.158293212890625,-0.18554712153077124,0.13185410978794096,0.163432320356369
1779786622135374000,1.1683740234375,-0.30189561915099616,0.14445990886092186,0.1271359952248633
1779786622145456000,1.1784560546875,-0.3453589133024215,0.19201836337149142,0.06429390073418617
1779786622155538200,1.1885380859375,-0.41455753721296784,0.15756488962769508,0.08483085813261568
1779786622165619200,1.198619140625,-0.541239797320962,0.03835691092312336,0.1520105069035664
1779786622175701200,1.208701171875,-0.555191750305891,-0.0015372925698757171,0.24433559324909
1779786622185783000,1.218782958984375,-0.47768765486478804,-0.015977321332693098,0.31175182725489137
1779786622195864300,1.2288642578125,-0.28418168328404425,-0.0018535189121961593,0.30317349359970536
1779786622205946000,1.238946044921875,0.19580080451965332,-0.2196656642317772,0.2884315227482468
1779786622216028200,1.249028076171875,0.30980829197168347,-0.21404723982810972,0.5644350506758317
1779786622226109000,1.25910888671875,0.2920587002694607,-0.4171919773697853,0.5087947407901287
1779786622236191000,1.26919091796875,0.0025590368330478666,-0.5924006602376699,0.5581710583776235
1779786622246273000,1.27927294921875,-0.2591583011865616,-0.5639847130924462,0.4156940304296091
1779786622256354000,1.28935400390625,-0.22622049270272254,-0.32540859668552874,0.3032391061818227
1779786622266436000,1.29943603515625,0.12445347814261913,0.09393325219452381,0.1542469241861254
1779786622276518100,1.30951806640625,0.5147556950211525,0.12713935622572897,0.07052746136151254
1779786622286599200,1.31959912109375,0.8464005557477474,-0.0740787971675396,0.17119119085483253
1779786622296681200,1.32968115234375,0.987196096882224,-0.10897183137238026,0.29379911419600246
1779786622306763300,1.33976318359375,0.7826157735794782,-0.17208733597695827,0.304400222383067
1779786622316844300,1.34984423828125,0.3754325645267963,-0.26810499323010445,0.48141098623685535
1779786622326926300,1.35992626953125,0.02446224108338356,-0.335061391171813,0.5782960009090602
1779786622337008000,1.370008056640625,-0.303798237901926,-0.2580892106503248,0.6237601134888827
1779786622347089200,1.380089111328125,-0.44648879900276656,-0.08910802399516105,0.6173126909151673
1779786622357171000,1.3901708984375,-0.4059498678654432,0.04244154988825321,0.46285132026076314
1779786622367253000,1.4002529296875,-0.3116507049679756,0.16701719310581684,0.357652650751546
1779786622377334000,1.410333984375,-0.17524200061559675,0.2853092260092497,0.2743818815425038
1779786622387416000,1.420416015625,-0.30681612441837786,0.23930326163768767,0.2717656346295029
1779786622397497000,1.4304970703125,-0.6269453193962574,0.10296353086829185,0.23202713315486906
1779786622407579100,1.4405791015625,-1.256879883736372,0.0025537761360406876,0.3204886028748005
1779786622417661200,1.4506611328125,-1.7361404870063066,-0.2306570138454437,0.45468408815711736
1779786622427742200,1.4607421875,-1.2545254295647144,-0.32906770371496674,0.6482912550900131
1779786622437824300,1.47082421875,-0.16263561702072618,-0.2306231115758419,0.3824015267565846
1779786622447906000,1.480906005859375,0.1630675786972046,-0.30359073263108727,0.31675584608726204
1779786622457987000,1.490987060546875,0.362051689428091,-0.3776952487617731,0.8024830880880356
1779786622468069000,1.501069091796875,0.7034943060696125,-0.8245429442048072,0.6597958879880607
1779786622478151200,1.511151123046875,0.8657493993401527,-0.9387509226649999,0.8545787476368248
1779786622488232200,1.521232177734375,0.5487848058730364,-0.8439648530334234,1.0129169597245753
1779786622498314200,1.531314208984375,0.5975497135639191,-0.41150457938313484,0.6759076493553817
1779786622508396000,1.54139599609375,0.5935469076633453,0.3132844436496496,0.27368396240621806
1779786622518477300,1.551477294921875,0.34093934329450126,0.8538573014944791,-0.035854134321957824
1779786622528559000,1.56155908203125,-0.006501052457094192,1.3128852640748023,-0.12295432562604545
1779786622538641200,1.57164111328125,-0.27182079888284205,1.7486644530147313,-0.2310693940386176
1779786622548722000,1.581721923828125,-0.28222470399737354,2.603688460201025,-0.30996538222953673
1779786622558804000,1.591803955078125,-0.09134031309187411,3.6664760969012975,-0.5246420060023665
1779786622568886000,1.601885986328125,0.3325988004505634,3.9606922674655913,-0.16284999042376874
1779786622578967000,1.611967041015625,1.1925830603927374,3.823513747784495,0.5713172479376196
1779786622589049000,1.622049072265625,2.1656027478843924,3.531772442901134,0.7282917704567313
1779786622599131100,1.632131103515625,2.801744350171089,2.8818980833381413,0.3149222739845514
1779786622609212200,1.642212158203125,2.774284096315503,2.1464906356573104,-0.43417087696045636
1779786622619294200,1.652294189453125,2.8018255987137555,1.300918347427249,0.7563935370862483
1779786622629375200,1.662375244140625,2.0344962415933607,0.8137392261177301,0.7404039407938718
1779786622639457300,1.672457275390625,1.2798188607752323,0.7319657827943563,0.03426701126098632
1779786622649539300,1.682539306640625,1.4064426686942577,0.2409188801407814,0.6585182692676782
1779786622659620000,1.6926201171875,1.0291782125651836,-0.32464579561948775,1.0828311845585703
1779786622669702100,1.7027021484375,0.0933843861401081,-0.8725345294356346,0.43144115973562
1779786622679784000,1.712783935546875,0.41105099039673804,-0.9762713827639817,0.13146774081885815
1779786622689865200,1.722865234375,0.7828367228537797,-0.1066997947871685,-0.22291882080882786
1779786622699947000,1.732947021484375,0.728443453887105,0.8600672620505094,0.09302359000369906
1779786622710029000,1.743029052734375,-0.13421090204715727,1.288049513503909,0.40226051182821393
1779786622720110000,1.753110107421875,-1.8565970044672488,0.31060674887299533,0.7010825687527656
1779786622730192100,1.763192138671875,-2.8515783483982085,-1.2110855162888765,0.5156332085080445
1779786622740274200,1.773274169921875,-2.656319980192184,-0.7030266885578632,0.7276955581292509
1779786622750355200,1.783355224609375,-1.978405521059036,-0.2852157025068998,1.3940890908166765
1779786622760437200,1.793437255859375,-1.2593243542790413,-0.6618424452543258,1.8295174204923212
1779786622770519000,1.80351904296875,-0.2992933276981115,-1.1060299815773964,1.3114660449266433
1779786622780600000,1.81360009765625,-0.012811550778150558,-0.9057271894633769,0.7120419157929718
1779786622790682000,1.82368212890625,-0.15833879660964012,-0.12456716765016317,0.5340246052451432
1779786622800764200,1.83376416015625,-0.10997370189130305,0.5133133872583509,0.6493953438743949
1779786622810845200,1.84384521484375,-0.034548166289925575,1.0060153636425733,1.051274016778171
1779786622820927200,1.85392724609375,-0.255453601449728,1.0108175032272935,1.4356743161365388
1779786622831009000,1.864009033203125,-0.7603998501181602,0.3481418220192194,1.112006133377552
1779786622841090300,1.87409033203125,-0.8919073384255171,0.6067714231565594,-2.2237457247734067
1779786622851171600,1.884171630859375,-0.9483855969727039,-2.2320734081357716,-0.5044996739447116
1779786622861253400,1.89425341796875,-1.124777936667204,-2.486846041584015,0.2941951277762651
1779786622871334400,1.90433447265625,-1.502702318009734,-0.74915423348248,-2.1803613410770892
1779786622881416400,1.91441650390625,-1.7747873207867144,-0.6033236207902432,-2.8614257886737584
1779786622891497500,1.92449755859375,-1.7080705768197775,-0.2111529796913266,-2.9410823859736324
1779786622901579300,1.934579345703125,-1.3579653457731007,-0.44503450854122634,-1.7945453297019003
1779786622911661300,1.944661376953125,-1.1342466067582369,-0.5403853724487125,-0.8252923012673854
1779786622921742300,1.954742431640625,-1.5598083530664444,-0.052219578189402815,-0.9830956758260726
1779786622931824400,1.964824462890625,-2.2103917376816273,-0.022624942653626204,-1.7975339901238678
1779786622941906400,1.974906494140625,-3.241578367459774,-0.38259135024026036,-2.8437808263897892
1779786622951987500,1.984987548828125,-4.71993710232973,-1.227141601946205,-2.795422161412239
1779786622962069200,1.9950693359375,-4.031780650645494,-1.6383203103758395,-3.47127910349369
1779786622972151300,2.0051513671875,-2.1167302881658077,-1.698925147333741,-2.7428336037799714
1779786622982232300,2.015232421875,0.18975918626785276,-1.7730537749923765,-0.34162031129598613
1779786622992314400,2.025314453125,0.6855354555308818,-1.4032583395697176,0.8210311366915702
1779786623002396400,2.035396484375,-0.1267073945492506,-0.7417030406937003,-0.5780675989806652
1779786623012477400,2.0454775390625,-1.450385270795226,-1.4097219826258718,-1.5312392611861227
1779786623022559500,2.0555595703125,-2.7402754437297583,-1.680601847396791,-1.2096551912248135
1779786623032641500,2.0656416015625,-3.1182571082174775,-1.1838584866672754,-0.7223404608368873
1779786623042722600,2.07572265625,-3.6317139955997466,-0.4876147362478077,-1.3890069652467965
1779786623052804400,2.085804443359375,-3.962779010611772,-0.24774624194279313,-1.2706909669458866
1779786623062886400,2.095886474609375,-3.270491158211231,-0.454718282687664,-1.3214713061124086
1779786623072967200,2.10596728515625,-2.4973896474301815,-0.2137980873726308,-1.908084030598402
1779786623083049200,2.11604931640625,-1.526981019219756,-0.04438450064957142,-1.9329075062096117
1779786623093131300,2.12613134765625,-0.6384750136703252,-0.7919543144848197,-0.21767536719739436
1779786623103212300,2.13621240234375,-0.7338193017065524,-1.1785283046204595,1.6307967830032108
1779786623113294300,2.14629443359375,-0.642957127520442,-0.3261138223454356,2.058002204865217
1779786623123376400,2.15637646484375,-0.0233189162671566,0.3205793498981744,0.7703998506069183
1779786623133457400,2.16645751953125,-0.450227401009202,0.308942724650912,0.719248924562335
1779786623143539500,2.17653955078125,-1.3233283321559428,-0.007982961577922104,1.5431401268601417
1779786623153621500,2.18662158203125,-1.7780483684092758,0.2364380997312255,2.0775246514588592
1779786623163702500,2.19670263671875,-2.1476488657817243,0.22820576650211585,1.6003677424699068
1779786623173784600,2.20678466796875,-2.2926026956394314,0.14562712600938976,1.3182821546822785
1779786623183866600,2.21686669921875,-1.6432143660277128,0.48010034202970564,1.2067799280494451
1779786623193947400,2.226947509765625,-0.30663989106863737,0.30617313207341357,0.6136790105879306
1779786623204029400,2.237029541015625,1.2345192911073566,-0.5092415347095579,0.06169277832508087
1779786623214111200,2.247111328125,1.7774357894688844,-0.4826115941982716,0.6929711584895849
1779786623224192300,2.257192138671875,1.2035974986210465,-0.056501054900884626,2.0284376722067594
1779786623234274300,2.2672744140625,-0.013025485789775847,0.08357826425563543,3.02470437977314
1779786623244356400,2.2773564453125,-1.2876771730601786,-0.21834259893447158,2.8308745830655098
1779786623254437400,2.287437255859375,-2.7169807851210237,-0.20866087061464786,2.175536697399616
1779786623264519400,2.29751953125,-2.9625021906211972,0.12149123080354184,1.1775959191411733
1779786623274601500,2.3076015625,-2.366506136240065,0.2690153495406732,0.8539455642998218
1779786623284682200,2.31768212890625,-1.2780395761430263,0.14867705163192002,1.207686521500349
1779786623294764300,2.327764404296875,-0.36198724588975306,-0.15116167152188717,1.3701608104795218
1779786623304846300,2.337846435546875,-0.11151493998393416,-0.17512407332435248,1.171790447732806
1779786623314927400,2.34792724609375,-0.4598348950490355,-0.4581856665372848,0.6596054799824953
1779786623325009400,2.358009521484375,-0.9375513376168906,-0.6366553239624947,-0.07540215472579002
1779786623335091500,2.368091552734375,-1.3492448637008667,-0.4319157184448093,-0.3185813810139894
1779786623345172500,2.37817236328125,-1.399847508212924,-0.4312736942142248,0.3420890978515148
1779786623355254500,2.388254638671875,-0.8805587728720158,-0.2777795611567795,0.9274532835811377
1779786623365336300,2.39833642578125,-0.34044418018870054,-0.22170498803965746,1.2893453985333443
1779786623375417300,2.408417236328125,-0.14435111472420395,-0.29831038107536734,1.3766793985933066
1779786623385499400,2.41849951171875,-0.2978518601855263,-0.13403583774119615,1.145820140174031
1779786623395581400,2.42858154296875,-0.3810398830145597,0.08389175065159797,1.0710796642273663
1779786623405662200,2.438662109375,-0.5416209055930375,0.00817512314915657,1.2119991240024566
1779786623415744300,2.448744140625,-0.6307914734303951,-0.26831425206661225,1.0495289266765118
1779786623425826300,2.458826416015625,-0.542203637384437,-0.23237317011356354,0.9013403526812791
1779786623435907300,2.4689072265625,-0.4832493806451559,-0.2603885736338794,1.0185258856475352
1779786623445989400,2.4789892578125,-0.16610241634845732,-0.1915044955652207,0.8516296885728836
1779786623456071400,2.489071533203125,-0.04879588735103607,-0.3044020490139723,1.361336868032813
1779786623466152400,2.49915234375,0.1939361796915531,-0.12811813813000916,1.3918845665097235
1779786623476234500,2.509234375,0.24108957879887893,0.23966186581701038,1.1128893459528684
1779786623486316500,2.519316650390625,0.012796371475327759,0.3408381114097312,1.1234826361596584
1779786623496397600,2.5293974609375,-0.3756079210937023,0.09213847773224115,1.4276029456228017
1779786623506479600,2.539479736328125,-0.4068833493232727,0.03170125242620706,1.8231056537538766
1779786623516561200,2.54956103515625,-0.28279176329560574,-0.013484079744853078,2.0415227792292834
1779786623526642400,2.559642333984375,-0.14005495190024375,0.049022681844234466,1.9697136805593967
1779786623536724200,2.56972412109375,0.0308090162942186,0.05380480155423283,1.5691297236412762
1779786623546806300,2.57980615234375,0.052649019115231926,-0.08186024482399225,1.2152104872643947
1779786623556888300,2.589888427734375,0.17635726838111876,-0.21029910280834882,1.0460399155169724
1779786623566969300,2.59996923828125,0.17764442211482673,-0.3111504272956401,0.9549456861406564
1779786623577051400,2.610051513671875,0.10906944652795791,-0.26248364621698855,0.9722112937182188
1779786623587133400,2.620133544921875,-0.0028734730770811436,-0.06305964623149483,0.9216185860782861
1779786623597214500,2.63021435546875,0.029079964011907575,0.006124072370864451,0.8875959049671888
1779786623607296500,2.640296630859375,0.04725738920476287,0.00030307459980249404,0.6390326475530862
1779786623617378600,2.650378662109375,-0.04115969338417053,0.09532163781300186,0.4532902957111597
1779786623627459300,2.660459228515625,-0.09439677805304526,0.2998347045658156,0.45863399482667444
1779786623637541400,2.670541259765625,-0.17116675053332,0.4775193125605583,0.6033306350529194
1779786623647623400,2.68062353515625,-0.2158568830659613,0.4868097765404731,0.8384826222300529
1779786623657704400,2.690704345703125,-0.09033672553990035,0.4731605693617835,0.8449562021583318
1779786623667786200,2.7007861328125,0.15754384683966635,0.3945347398817539,0.6895832696169615
1779786623677868300,2.710868408203125,0.3483294535458088,0.25744451953861863,0.2903442975670099
1779786623687949300,2.72094921875,0.42074820854663847,0.12975691831298172,-0.2603022105246782
1779786623698031400,2.73103125,0.23343703648541123,0.1350115874381736,-0.7139800442487001
1779786623708113400,2.741113525390625,-0.16620881759868933,0.20437928430531171,-0.8546224406480789
1779786623718194400,2.7511943359375,-0.49349550138209014,0.2724008637931198,-0.6131120243549346
1779786623728276500,2.7612763671875,-0.8338017709374427,0.5236715535350144,-0.21038228757977484
1779786623738358500,2.771358642578125,-0.7732032175898551,0.6513549535095692,0.09462532611191272
1779786623748439300,2.781439208984375,-0.5126561289260163,0.565338319658488,0.1536293037444353
1779786623758521300,2.791521240234375,-0.25321605165600775,0.08280172692518681,0.01661912636756897
1779786623768603400,2.801603271484375,-0.13644030506704002,-0.1429587105177343,-0.07108019987344741
1779786623778685400,2.811685546875,-0.10883793932702392,-0.1267460460592061,-0.3204208714008331
1779786623788766500,2.821766357421875,-0.22204463179018347,-0.10044648827975615,-0.4670581243008375
1779786623798848500,2.8318486328125,-0.39729839590881016,-0.03039716582400724,-0.4419967482805252
1779786623808930300,2.841930419921875,-0.5864005430400371,0.05189650198118761,-0.37514790236651896
1779786623819011300,2.85201123046875,-0.7396329564213753,0.03974188074180856,-0.14052432297766207
1779786623829093400,2.86209326171875,-0.758262838089466,0.1000805593105033,0.05424480040669441
1779786623839175400,2.872175537109375,-0.606809709340334,0.05384805617406964,0.13497370311319828
1779786623849256200,2.882256103515625,-0.2540145085573196,-0.1243490131211467,0.2472749711692333
1779786623859338200,2.892338134765625,-0.03069434040598571,-0.16118426743494346,0.19190847325623034
1779786623869420300,2.902420166015625,0.02650930980630219,-0.13163158961106092,0.10248422291874885
1779786623879501300,2.912501220703125,0.017630312704108655,-0.18846887246267868,-0.03799509187340736
1779786623889583400,2.922583251953125,0.017196633994579314,-0.17829616402182727,-0.09002455431818962
1779786623899665400,2.93266552734375,-0.13166355565190316,-0.07769041179344058,0.12052782913148402
1779786623909747500,2.94274755859375,-0.16222228697948157,-0.03146735233878717,0.3499836504936218
1779786623919828200,2.952828125,-0.05934760343842208,-0.0709285712420009,0.3718640583902597
1779786623929910300,2.96291015625,-0.06084993429277092,-0.13018213972141965,0.24953005661964414
1779786623939992000,2.972991943359375,-0.19876199241280554,-0.16183790903808548,0.05857961474061012
1779786623950073300,2.9830732421875,-0.32401568102240563,-0.07163836347917095,-0.1587748499393463
1779786623960155100,2.993155029296875,-0.41480595901608464,-0.008208459163177757,-0.1951344495654106
1779786623970237200,3.0032373046875,-0.478103870982863,0.1119446001054719,-0.09823182617127894
1779786623980318200,3.013318115234375,-0.4486486073851585,0.13776674963152036,0.22750410277247426
1779786623990400300,3.023400146484375,-0.31754611968211827,0.2411237002641894,0.3613035014092922
1779786624000482300,3.033482421875,-0.2553845548015088,0.318053046290949,0.4210241028785705
1779786624010564400,3.043564453125,-0.19844054190609603,0.36883974213302134,0.3501473166227341
1779786624020645400,3.053645263671875,-0.10446111248228698,0.3555090628515929,0.12979542369246483
1779786624030727200,3.06372705078125,0.0482324082493782,0.29999396851444615,0.06050386080145836
1779786624040809200,3.073809326171875,0.09485149955060332,0.3100907621748745,-0.0861561884522438
1779786624050890200,3.08389013671875,0.1100327386021614,0.2763249236353673,-0.0788888277977705
1779786624060972300,3.09397216796875,0.0189362442035228,0.27727690886426715,-0.02078969005048275
1779786624071054300,3.104054443359375,-0.050123921084403986,0.24889502838542685,0.02387128945291042
1779786624081135400,3.11413525390625,-0.12044424250125885,0.21721425249166784,0.11075286957025528
1779786624091217200,3.124217041015625,-0.15953586090710012,0.1735859587705694,0.10013619848787784
1779786624101299200,3.13429931640625,-0.2979776054570451,0.1353800371580757,-0.019635843840241432
1779786624111381200,3.14438134765625,-0.48765609117150305,0.13474977643052116,-0.13466566007733344
1779786624121462300,3.154462158203125,-0.635083033144474,0.13635017909817396,-0.17091010889112948
1779786624131544300,3.16454443359375,-0.6669254476070403,0.08850918131917715,-0.14403379240334033
1779786624141626400,3.17462646484375,-0.6867606864769011,0.09110248574800789,-0.14785072034299374
1779786624151707100,3.18470703125,-0.6621943274319172,0.10411145879440009,-0.1342009651750326
1779786624161789200,3.1947890625,-0.6433949344158172,0.16322914420077575,-0.14482581956386564
1779786624171871200,3.204871337890625,-0.6752618987977504,0.26126809641476717,-0.04600421080589294
1779786624181952300,3.2149521484375,-0.6253203485429286,0.38242724571973086,0.03589899637699127
1779786624192034300,3.225034423828125,-0.5490286245662719,0.36437837880998847,0.040972061857581135
1779786624202116400,3.235116455078125,-0.5060054023325443,0.26324454758688803,0.03911912746727467
1779786624212198100,3.2451982421875,-0.43594227054715157,0.19359481890797614,-0.019323124629259107
1779786624222279400,3.255279541015625,-0.41150808651447296,0.08261252449601889,-0.0663619391798973
1779786624232361200,3.265361328125,-0.3910182927260175,0.07450191795043647,-0.05508475836217403
1779786624242443300,3.275443359375,-0.27239074425790455,0.07266973408721387,0.04540215325951576
1779786624252524300,3.285524169921875,-0.15259060834646224,0.105724026823882,0.15400924297273158
1779786624262606000,3.295606201171875,-0.09177110572457313,0.0947925724375993,0.19460195012390613
1779786624272688000,3.305688232421875,-0.06138886347506195,0.05416351533140987,0.23896014728844164
1779786624282770200,3.315770263671875,-0.10830964113660156,-0.0006877996010705829,0.2581330497920513
1779786624292851200,3.325851318359375,-0.17351652852986008,-0.023366134676057845,0.31182372344732284
1779786624302933200,3.335933349609375,-0.16106617574691773,-0.05308067026445642,0.3516571366637945
1779786624313015300,3.346015380859375,-0.05542779964618384,-0.13784598888019098,0.34988428177237507
1779786624323096300,3.356096435546875,0.019916962336562573,-0.13517887029647827,0.3655295946717262
1779786624333178400,3.366178466796875,-0.026662381476163864,-0.11083866642387583,0.4510305340856313
1779786624343260400,3.376260498046875,-0.11516016461849211,-0.0490944684388116,0.44245910509526726
1779786624353342200,3.38634228515625,-0.21116781193427742,-0.060016095550823954,0.45430327214598654
1779786624363423200,3.39642333984375,-0.19264325380418448,-0.1963731245148927,0.439497917202115
1779786624373505300,3.40650537109375,-0.1921499538619071,-0.3450114150390029,0.4110778784036636
1779786624383587300,3.41658740234375,-0.2087409501135349,-0.34511860174052417,0.36765842339396476
1779786624393668000,3.426668212890625,-0.2099054273156449,-0.29751725793629885,0.22097733135223388
1779786624403750100,3.436750244140625,-0.1987818661570549,-0.20624537043813615,0.11386837124228477
1779786624413832200,3.446832275390625,-0.11253098515868186,-0.14148266488211228,-0.015423779103159903
1779786624423914200,3.456914306640625,-0.005298179473355412,-0.06695312827238813,0.012176760005950927
1779786624433995300,3.466995361328125,0.11949494241978972,0.015657496527489274,0.073777768394351
1779786624444077300,3.477077392578125,0.1890552757821977,0.039585110144363715,0.020541268247365952
1779786624454159400,3.487159423828125,0.21154661865141242,-0.0051394269813783465,-0.06966390333473682
1779786624464240400,3.497240478515625,0.14065689984876661,-0.006353725541429594,-0.17453531365096567
1779786624474322400,3.507322509765625,0.05727960152532905,-0.028491478333156555,-0.23770927044451234
1779786624484404200,3.517404296875,0.04588259372022003,-0.0851041038497351,-0.2860124058425426
1779786624494486300,3.527486328125,-0.05369893002696335,-0.056621685605868693,-0.19441022694408894
1779786624504567000,3.537567138671875,-0.15267594854235647,0.004900919217499904,-0.09526596210300922
1779786624514649000,3.547649169921875,-0.17169037254862488,0.019909706045291384,-0.20829437538981435
1779786624524731100,3.557731201171875,-0.18180851952433585,0.09482148800482973,-0.3533995964169502
1779786624534812200,3.567812255859375,-0.2306804312536493,0.09437533340621738,-0.41425592391788957
1779786624544894200,3.577894287109375,-0.4140285449028015,0.11021187629504128,-0.3332441126167774
1779786624554976300,3.587976318359375,-0.7485106018166988,0.05538286909249145,-0.4484428556799888
1779786624565058300,3.598058349609375,-0.8756125486414879,-0.03681069982785266,-0.5447755702316761
1779786624575139300,3.608139404296875,-0.5911784249663352,-0.1905668128563091,-0.3883434840261936
1779786624585221400,3.618221435546875,-0.22757311288807539,-0.3627394159639254,-0.06678104137480259
1779786624595303400,3.628303466796875,-0.16145667290184645,-0.32960308923330156,0.010418518161773681
1779786624605385200,3.63838525390625,-0.2780804803321138,-0.32572438463643194,-0.0886135184764862
1779786624615466200,3.64846630859375,-0.4038532243797555,-0.3114542690804228,-0.1735848810583353
1779786624625548300,3.65854833984375,-0.45645555480904876,-0.2928856891455129,-0.19388123463392257
1779786624635630300,3.66863037109375,-0.3960287778317928,-0.2979025674594566,-0.12556348521113395
1779786624645711000,3.678711181640625,-0.29348380116913464,-0.24780900498069822,-0.047674189844727516
1779786624655793200,3.688793212890625,-0.1982417679309845,-0.2509470655444078,0.03038870852291584
1779786624665875200,3.698875244140625,-0.23369060938768088,-0.2911214194193482,0.02901391303837299
1779786624675957200,3.708957275390625,-0.37375264861583707,-0.29691052421480413,-0.001616203024983406
1779786624686038300,3.719038330078125,-0.5366917055625469,-0.2543503346492536,0.019230185648798942
1779786624696120300,3.729120361328125,-0.5953414629299193,-0.21546770108528435,0.028085692277550697
1779786624706202400,3.739202392578125,-0.5709621508896351,-0.24544534458927808,0.07706921115517616
1779786624716284200,3.7492841796875,-0.5093547127604484,-0.31923100402913984,0.1752045912146568
1779786624726365400,3.759365478515625,-0.4456347394566983,-0.42198355902787293,0.22823183252513407
1779786624736447200,3.769447265625,-0.4297182814657688,-0.5751927376640961,0.24203239434063434
1779786624746529300,3.779529296875,-0.5100223098237067,-0.7165365237984805,0.17450667207837103
1779786624756610000,3.789610107421875,-0.5789315953988582,-0.7660241928059607,0.07290858434438705
1779786624766692000,3.799692138671875,-0.5517664520323277,-0.6763480865992605,0.07121113277673721
1779786624776774100,3.809774169921875,-0.5297346529662609,-0.5597906589360907,0.1821200696915388
1779786624786856200,3.819856201171875,-0.5082044467467814,-0.4362161555850878,0.29630174466669557
1779786624796937200,3.829937255859375,-0.42466337269637733,-0.37622532233968375,0.3113362321913242
1779786624807019300,3.840019287109375,-0.3325239085834473,-0.3961021718615666,0.2669400411039591
1779786624817101300,3.850101318359375,-0.3169184162378311,-0.47472898772228506,0.19798224021196364
1779786624827183400,3.860183349609375,-0.3067196783065796,-0.4985539538154378,0.10068623358607291
1779786624837264400,3.870264404296875,-0.21149404821395873,-0.5359498376866803,0.04188157791793346
1779786624847346700,3.8803466796875,-0.15542195931486785,-0.5462670874310657,0.03152794168591499
1779786624857428700,3.8904287109375,-0.1524795491874218,-0.5836949373431504,-0.02503331896960735
1779786624867510800,3.9005107421875,-0.25491587784383446,-0.5393084273995832,-0.07350888832509517
1779786624877591800,3.910591796875,-0.2015876442927867,-0.5600590640813112,-0.0804483321994543
1779786624887673900,3.920673828125,-0.04043956241607666,-0.5561466764105484,-0.03515548453330993
1779786624897756000,3.930755859375,0.1548457668621093,-0.4635131451703608,-0.014683774390816688
1779786624907838000,3.940837890625,0.28906711723804474,-0.41759467641916126,-0.03834463596343994
1779786624917918700,3.950918701171875,0.30176768192239106,-0.39672300717364994,-0.21215163533985615
1779786624928000800,3.961000732421875,0.102494671247527,-0.34311223035417493,-0.3679606212109327
1779786624938082800,3.971082763671875,-0.12096907009296118,-0.28183311086390167,-0.3894581672698259
1779786624948163800,3.981163818359375,-0.16940839909128844,-0.26722059334469955,-0.3275684050679207
1779786624958245600,3.99124560546875,-0.1597368999045342,-0.25253323875730854,-0.29475509974658487
1779786624968327700,4.00132763671875,-0.22110599923320112,-0.23320010419068857,-0.20990356415212152
1779786624978409700,4.01140966796875,-0.4035329429168254,-0.18837105637770146,-0.19769465544223785
1779786624988490800,4.02149072265625,-0.5724702904302627,-0.08157265092111192,-0.2909767502516508
1779786624998572800,4.03157275390625,-0.6820119575798511,0.05833825286594219,-0.300275324472785
1779786625008654800,4.04165478515625,-0.611170315702632,0.12004221017216332,-0.16276012018322944
1779786625018737000,4.05173681640625,-0.39778709274120627,0.15607337242830543,-0.1042336969345808
1779786625028817700,4.061817626953125,-0.20982932987213135,0.08035837062736972,-0.07845628159940242
1779786625038899700,4.071899658203125,-0.06375029537677765,-0.038601021877303715,-0.1676069756925106
1779786625048981800,4.081981689453125,-0.08251242512241005,-0.10503293015402741,-0.18521452857553958
1779786625059063600,4.0920634765625,-0.18468327124305067,-0.10567001334801315,-0.1854793169915676
1779786625069144800,4.102144775390625,-0.25913382433243093,-0.15086530979066154,-0.16480828488469124
1779786625079226600,4.1122265625,-0.2362087296884507,-0.20111425462737678,-0.1121066222667694
1779786625089308700,4.12230859375,-0.1678805319368839,-0.2678337568069808,-0.05762099884152412
1779786625099390700,4.132390625,-0.13303827807120977,-0.35089948669690635,0.0031365444600582122
1779786625109471700,4.1424716796875,-0.15796704068779943,-0.36132801479604093,0.03556874150931835
1779786625119553800,4.1525537109375,-0.09283727365136146,-0.34344555396176873,0.015659341424703595
1779786625129635800,4.1626357421875,-0.07125555644035339,-0.2934726769869216,0.11073182678222655
1779786625139718000,4.1727177734375,-0.14050737184286116,-0.199873606916517,0.2503817050129175
1779786625149799000,4.182798828125,-0.18960363037995992,-0.1796481814189814,0.3464426168859005
1779786625159881000,4.192880859375,-0.28456388753466305,-0.26122261330522595,0.3075666505247354
1779786625169962800,4.202962646484375,-0.42145314194560046,-0.2757954746674746,0.33385669155716896
1779786625180044500,4.21304443359375,-0.4610323612052947,-0.2830822341421619,0.3844833014667034
1779786625190125800,4.223125732421875,-0.5198083022356033,-0.22430662190541623,0.25706512829959394
1779786625200207600,4.23320751953125,-0.5911866813380271,-0.17281356789227573,0.10407470698058605
1779786625210289700,4.24328955078125,-0.601170315213874,-0.16395073647359384,0.03246200766563415
1779786625220371700,4.253371826171875,-0.6054794105846435,-0.11382987499595619,0.061465983831882474
1779786625230452700,4.26345263671875,-0.6410451564192772,-0.0807558820449747,0.18102526019215584
1779786625240534800,4.27353466796875,-0.6118120476722717,-0.06002317374558188,0.37341771757304665
1779786625250616800,4.283616943359375,-0.6990086850881576,-0.12770991352214478,0.37372751417458056
1779786625260699000,4.293698974609375,-0.8268692682605236,-0.21925585958817972,0.2631488321274519
1779786625270780000,4.30377978515625,-0.8032439894579351,-0.23690869465135037,0.10045827004909515
1779786625280862000,4.313862060546875,-0.687513404540345,-0.1440143753168173,0.009022095367312431
1779786625290943700,4.32394384765625,-0.6114764590423554,-0.05748522993291262,0.0194148945659399
1779786625301025800,4.33402587890625,-0.6314531522095203,0.06540100345956161,0.16984043383300304
1779786625311106600,4.3441064453125,-0.5951579230565578,0.160514533213526,0.25586159772872924
1779786625321188600,4.354188720703125,-0.5474457392890006,0.13833369933189824,0.22035540006160734
1779786625331270700,4.364270751953125,-0.4914228232938796,0.028265839184005742,0.12056757661998271
1779786625341352700,4.374352783203125,-0.39198863559551533,-0.05461728241431992,0.051012394356727594
1779786625351433700,4.384433837890625,-0.31036110354885454,-0.061228503547888245,0.057715691387653346
1779786625361515800,4.394515869140625,-0.29314357289671894,-0.005102478804741985,0.06012333705127239
1779786625371597800,4.404597900390625,-0.3260265093881637,0.05929496906888671,0.09560440027713775
1779786625381679900,4.414679931640625,-0.3290822436969727,0.12279815781679936,0.12165244924724102
1779786625391761000,4.424760986328125,-0.31621472494788466,0.08937105884552002,0.10295768564939499
1779786625401843000,4.434843017578125,-0.39718978443518277,0.000714541477523744,0.030004093119502067
1779786625411924700,4.4449248046875,-0.520238656476885,-0.0865593898251187,-0.07137947508096694
1779786625422006800,4.4550068359375,-0.6130361095745116,-0.18213523072805254,-0.14804478161036969
1779786625432087600,4.465087646484375,-0.718389092862606,-0.16750249240472911,-0.011585223853588103
1779786625442169600,4.475169677734375,-0.7513385917842388,-0.094162229511654,0.07439911516308784
1779786625452251600,4.485251708984375,-0.8224304090302437,-0.05049505595173687,0.184708332619071
1779786625462333700,4.495333740234375,-0.822612779859826,-0.04244845455307513,0.2679997792899608
1779786625472415700,4.505415771484375,-0.7692961271487176,-0.08464142737458459,0.24722470228672025
1779786625482496800,4.515496826171875,-0.7150678394854069,-0.12816861707507632,0.08624269769191742
1779786625492578800,4.525578857421875,-0.773522366541624,-0.1264673295825254,-0.0205652336448431
1779786625502660900,4.535660888671875,-0.8720669119238853,-0.03679116857689805,-0.13360592189133166
1779786625512742700,4.54574267578125,-0.9374421781539917,0.022216297920653594,-0.11728899334073066
1779786625522824000,4.555823974609375,-0.9039876523196697,0.08201804746789858,0.023516484665870665
1779786625532905700,4.56590576171875,-0.8363643149018287,0.10612322787507436,0.15006372021734712
1779786625542987800,4.57598779296875,-0.8033259686529636,0.07884055907609872,0.26339842297434807
1779786625553069800,4.58606982421875,-0.7570914562225342,0.01465023744739592,0.24999299795627591
1779786625563150600,4.596150634765625,-0.6611934798263013,-0.1312672772101592,0.18398118738830088
1779786625573232600,4.606232666015625,-0.5232581504285335,-0.27865400590375067,0.08408464287519454
1779786625583314700,4.616314697265625,-0.47086277728080744,-0.32389629242643714,0.028275077369809148
1779786625593396700,4.626396728515625,-0.46039749736785884,-0.2564395802797749,0.0450952792674303
1779786625603477800,4.636477783203125,-0.4296224198758602,-0.23741306397691367,0.06825695914626122
1779786625613559800,4.646559814453125,-0.4482020691940561,-0.2688032411599532,0.1281271982192993
1779786625623641900,4.656641845703125,-0.5861620946416631,-0.312915135413222,0.1935878046452999
1779786625633723600,4.6667236328125,-0.6984370226800442,-0.3278818914638832,0.23931845920681952
1779786625643805700,4.6768056640625,-0.8385679624259471,-0.3916281682526693,0.1700023463964462
1779786625653886700,4.68688671875,-1.0080243653774261,-0.4309038745211437,0.093293200725317
1779786625663968800,4.69696875,-1.098369237691164,-0.38028175812363624,0.0031768764704465866
1779786625674050800,4.70705078125,-1.1285352433741092,-0.2645301669506356,-0.06855448078811169
1779786625684132900,4.7171328125,-1.131745437592268,-0.1834998701447621,-0.143808751475811
1779786625694214000,4.7272138671875,-1.1503706430852412,-0.13217956974948755,-0.13261281920075416
1779786625704296000,4.7372958984375,-1.1962848375201225,-0.10905269632255658,-0.08783844245076179
1779786625714378000,4.7473779296875,-1.2146890937387942,-0.13210155434352344,-0.04976385560035705
1779786625724459800,4.757459716796875,-1.2707517572224138,-0.16987159615624695,-0.09932780471444129
1779786625734541600,4.76754150390625,-1.3865619101822375,-0.23002130975779145,-0.09269874196350573
1779786625744622600,4.77762255859375,-1.394918235117197,-0.28705354892592877,-0.17155951271057127
1779786625754704600,4.78770458984375,-1.3452280292749403,-0.2887609921646304,-0.17918226267397402
1779786625764786700,4.79778662109375,-1.2820774533569812,-0.2560988953496329,-0.1286024145156145
1779786625774868700,4.80786865234375,-1.2453624644219874,-0.2168189695637673,-0.12576748335063456
1779786625784949800,4.81794970703125,-1.2508207298278808,-0.17936726385205984,-0.06960311305820942
1779786625795031800,4.82803173828125,-1.2174480370581149,-0.15149602717594243,-0.025772154638171195
1779786625805113900,4.83811376953125,-1.1210451798796652,-0.1634538746010512,0.016166706424951553
1779786625815196000,4.84819580078125,-0.9950959102213383,-0.132043001689855,0.15929916607439518
1779786625825277700,4.858277587890625,-0.8382944061815738,-0.055431315910676494,0.22552432713210582
1779786625835359000,4.86835888671875,-0.7200888825178146,-0.06575342449326999,0.15749650056660175
1779786625845440800,4.878440673828125,-0.673067603623867,-0.07802936142422258,0.14292553890049456
1779786625855523000,4.888523193359375,-0.6758908443510532,-0.07116219733478502,0.18481880725622177
1779786625865605000,4.898605224609375,-0.7976853324174881,-0.09153554340302944,0.2510831312805414
1779786625875686000,4.908685791015625,-1.0072761773586272,-0.17414067004388198,0.26010814925730225
1779786625885768000,4.918767822265625,-1.1849755079984665,-0.24846001623533664,0.23981997898817062
1779786625895850000,4.92885009765625,-1.3314134389340877,-0.29686810984518375,0.236290635818243
1779786625905932000,4.93893212890625,-1.3919383425235747,-0.27226815905785184,0.2021750157266855
1779786625916014000,4.94901416015625,-1.347181501430273,-0.20610176071636377,0.14625088393092153
1779786625926095000,4.95909521484375,-1.2424796024620532,-0.129309247610718,0.08727262526154518
1779786625936177000,4.969177001953125,-1.1159586703956126,-0.06909110841546207,0.06026946752369403
1779786625946259000,4.979259033203125,-1.0937889241635799,-0.042234556074067946,0.07227671618163585
1779786625956341000,4.989341064453125,-1.1012766495704651,-0.03547211273442954,0.08340484391748905
1779786625966423000,4.999423095703125,-1.109569700010866,-0.06464130766605958,0.08447919515073299
1779786625976504000,5.009504150390625,-1.1640753433108328,-0.11230736900325863,0.17568682177364825
1779786625986586000,5.019586181640625,-1.2033236501157283,-0.1604523546975106,0.12637713968157768
1779786625996668200,5.029668212890625,-1.1639970173776149,-0.19334486273489893,0.019876082336902617
1779786626006750200,5.039750244140625,-1.041093106764555,-0.15180634436728432,-0.013289105162024497
1779786626016831000,5.0498310546875,-0.8939093258976936,-0.07514514775741844,-0.035303953093290326
1779786626026913000,5.0599130859375,-0.8356441839337349,-0.015967165264859796,-0.06890344035625458
1779786626036994800,5.069994873046875,-0.8376444178402424,-0.026995010964013636,-0.05686404299437999
1779786626047076900,5.080076904296875,-0.8511702543675899,-0.015520992399938404,-0.11119827525019645
1779786626057159000,5.090158935546875,-0.8747907839298248,-0.0843465634807013,-0.20831366461217402
1779786626067240000,5.100239990234375,-0.8604699976325034,-0.15188523655608296,-0.19253566524386403
1779786626077322000,5.110322021484375,-0.7620939406849443,-0.19468601167816668,-0.1995610338360071
1779786626087404000,5.120404052734375,-0.6842693811178207,-0.1779075300304219,-0.16907997085452078
1779786626097486000,5.130486083984375,-0.649687897080183,-0.12185226440196856,-0.09213292477428912
1779786626107568000,5.140568115234375,-0.6457996574699878,-0.05838694171272218,-0.019256489133834837
1779786626117649200,5.150649169921875,-0.6853226895630359,-0.00656584305530414,0.01713409015238285
1779786626127731200,5.160731201171875,-0.7570774276971817,0.032668307360075415,0.06837795517742633
1779786626137813000,5.17081298828125,-0.7976128517031669,-0.009653653002809733,0.11704817032217979
1779786626147895000,5.18089501953125,-0.8507634271323681,-0.07430741829164325,0.15057225426137447
1779786626157977000,5.19097705078125,-0.9548036473214626,-0.11406802200023085,0.22364099760353565
1779786626168057900,5.201057861328125,-1.0270844551563263,-0.12365352340396493,0.1737017854362726
1779786626178140000,5.211139892578125,-1.007328784328699,-0.17685248628584668,0.10349953744113445
1779786626188222000,5.221221923828125,-0.9014461511433124,-0.14549195532239972,-0.018535189121961594
1779786626198304000,5.231303955078125,-0.8306254789888858,-0.08668339066412299,0.016658873856067655
1779786626208386000,5.241385986328125,-0.8988216478586196,-0.09137381350267677,0.014413725277781486
1779786626218467000,5.251467041015625,-0.9831447756648063,-0.10606094889435916,-0.04962707747817039
1779786626228549000,5.261549072265625,-1.0481623144984245,-0.10501595161976292,-0.06050970602035522
1779786626238631000,5.271630859375,-1.074316161930561,-0.07043444931581616,0.028262217888236043
1779786626248713000,5.281712890625,-1.0011772759616375,0.007400722976867109,0.08937456597685814
1779786626258794000,5.2917939453125,-0.9230909967184067,0.023047899039741603,0.12111059745550155
1779786626268876000,5.3018759765625,-0.9124258103191852,0.042794564577005804,0.06662438950836658
1779786626278958000,5.3119580078125,-0.9549415944874287,0.06847374370209873,-0.05844926635921001
1779786626289040100,5.3220400390625,-0.9968377854526043,0.08628768761111423,-0.08063362563848495
1779786626299122200,5.3321220703125,-0.9995196449477225,0.08916651271674782,-0.12502630959451197
1779786626309203000,5.342202880859375,-1.0467466755468398,0.03689187987186014,-0.13272738549113272
1779786626319285000,5.352284912109375,-1.0351672238469123,-0.012282193141803144,-0.11541501616239547
1779786626329367000,5.362366943359375,-0.9452151502430438,-0.03818752743927762,-0.05340075079798698
1779786626339448800,5.37244873046875,-0.8541606683552264,0.0004056033925153315,0.02031739636361599
1779786626349531000,5.38253076171875,-0.8263666525006294,0.025698651010543107,0.021495792493224142
1779786626359613000,5.392613037109375,-0.8168003672540187,0.05389350275099277,-0.0123129536062479
1779786626369694000,5.40269384765625,-0.7741688477516174,0.07620114135006442,-0.005534253251552581
1779786626379776000,5.41277587890625,-0.6769546741902828,0.08094685630612075,-0.0212058696359396
1779786626389858000,5.422858154296875,-0.631746582198143,0.06137761142868548,-0.0027659575819969176
1779786626399940000,5.432940185546875,-0.5814706854224204,-0.01310691699553281,-0.02175648925602436
1779786626410022100,5.443022216796875,-0.5552490334510803,-0.024316311540361492,0.027890461966395375
1779786626420103200,5.453103271484375,-0.5107107670119032,-0.026309202390629796,0.11582476600706576
1779786626430185000,5.46318505859375,-0.3955786959767341,-0.0397671247809194,0.1418693078458309
1779786626440267000,5.47326708984375,-0.3815010342529043,-0.04758020968465134,0.059300914752483364
1779786626450349000,5.48334912109375,-0.45291558064725246,-0.03253163883574307,-0.007259761869907379
1779786626460431000,5.49343115234375,-0.481374818944931,-0.019684048629831523,-0.06964929028749466
1779786626470511900,5.503511962890625,-0.4646165763676166,-0.03786675278600305,-0.0786444976478815
1779786626480594000,5.513593994140625,-0.4228723976263776,-0.11839859855044632,-0.07359773565232754
1779786626490676000,5.523676025390625,-0.37564536702726037,-0.21079636653969064,-0.07036299151480198
1779786626500758000,5.533758056640625,-0.35121816072463985,-0.2881481392296031,-0.01719546495079994
1779786626510840000,5.543840087890625,-0.36342761742379515,-0.33719087748117743,-0.011986790391802787
1779786626520921000,5.553921142578125,-0.3539735969126224,-0.28257265891851857,-0.022947160345315933
1779786626531003000,5.5640029296875,-0.27053543524742124,-0.18080259388480335,-0.006763502785563469
1779786626541085000,5.5740849609375,-0.2432195582985878,-0.04904206239813939,0.042293665850162504
1779786626551167000,5.5841669921875,-0.21053426327109337,0.042284770157653834,0.035333179187774656
1779786626561249000,5.5942490234375,-0.21102880532238633,0.09033360200105234,0.028709377133846282
1779786626571330000,5.604330078125,-0.31882516317460685,0.07245886781550943,0.01744037962257862
1779786626581412000,5.614412109375,-0.4079658838629722,0.05449302128041163,0.022469021439552306
1779786626591494100,5.624494140625,-0.4725344368200749,0.03549845275208354,0.0450344889909029
1779786626601576200,5.634576171875,-0.487941301321052,0.0405245555520989,0.011091887378692626
1779786626611658000,5.644657958984375,-0.44543961874339727,0.030377365144994107,0.051414545416831964
1779786626621740000,5.654739990234375,-0.3594213774571195,0.0894155190417543,0.07145370936095714
1779786626631820800,5.66482080078125,-0.2843862842117436,0.14600169494282453,-0.02831599390208721
1779786626641902800,5.67490283203125,-0.26824880388127637,0.1641103840147145,-0.06107669225335121
1779786626651985000,5.68498486328125,-0.31566516477372497,0.20048437749231232,-0.03836275614202022
1779786626662067000,5.69506689453125,-0.3352607131361961,0.23803696802891788,-0.037273791861534115
1779786626672149000,5.70514892578125,-0.22008887634621932,0.25453334479965267,-0.28121114304065703
1779786626682230000,5.71522998046875,0.00636663068877533,0.2364577177471481,-1.1188152288705109
1779786626692312000,5.72531201171875,-0.17816577910780906,-0.3215560129106045,0.2415589316099882
1779786626702394000,5.73539404296875,-0.2515945696677081,-0.2882754919363186,0.6985428211420774
1779786626712476000,5.745475830078125,0.09537292960882186,-0.05643089400781318,-0.14916998624801636
1779786626722558000,5.755557861328125,0.21731473545776678,-0.1395638439150527,-0.3950099561780691
1779786626732639000,5.765638916015625,0.13431960485232994,-0.13090473664123564,0.012664251261949538
1779786626742721000,5.775720947265625,0.06339139893651008,0.013128124180343,0.11112287192642688
1779786626752803000,5.785802978515625,0.049872558405529704,0.08018555307742208,0.19588672923743725
1779786626762885000,5.795885009765625,0.00042083749426528806,0.11312524299109354,0.22081775687634944
1779786626772967200,5.80596728515625,-0.06971828213678673,0.13797489422317594,0.13566402346491813
1779786626783049200,5.81604931640625,-0.14146483696447684,0.0985336038631387,0.014894786792993544
1779786626793130000,5.8261298828125,-0.18609304670942947,0.046184353145770726,-0.027652561557292937
1779786626803212000,5.8362119140625,-0.25874445968866344,-0.007943889942858367,0.05504384182989597
1779786626813293800,5.8462939453125,-0.3716822720825672,-0.02322183083454147,0.13120587501227854
1779786626823376000,5.8563759765625,-0.4632628236711025,-0.006866725698020309,0.10494330650866031
1779786626833458000,5.8664580078125,-0.4555857131719589,0.02291614415254444,0.03205868756175041
1779786626843540000,5.8765400390625,-0.4101087411105633,0.015382478978391735,-0.050232642155885694
1779786626853621000,5.88662109375,-0.41934652505517006,0.01648404701212421,-0.10110124412775039
1779786626863703000,5.896703125,-0.46265959708094595,0.01532384412633255,-0.14751578930020331
1779786626873785000,5.90678515625,-0.5166963076949119,-0.017459833241719753,-0.1884901892453432
1779786626883867100,5.9168671875,-0.5037035916635766,-0.05924270002553239,-0.14741291344761848
1779786626893949000,5.926948974609375,-0.45541853991150855,-0.07414240045566112,-0.05610650262534618
1779786626904030200,5.9370302734375,-0.38234979656934737,-0.03636274143122136,0.06317921749055386
1779786626914112000,5.947112060546875,-0.30076341851698235,-0.004765917493868619,0.11032266145944594
1779786626924194000,5.957194091796875,-0.2148129452372901,0.049866219996288416,0.15269932941794395
1779786626934276000,5.967276123046875,-0.09224456845521926,0.0768453392714262,0.17839958786368368
1779786626944358100,5.977358154296875,-0.03944351884974166,0.0964368142469786,0.17199731960594652
1779786626954440200,5.987440185546875,-0.08682720131529495,0.060831686250027266,0.13164601999521255
1779786626964521000,5.99752099609375,-0.18179213464511557,-0.02199418873572722,0.12227321149408817
1779786626974603000,6.00760302734375,-0.23694646937847136,-0.07211474881926551,0.13384557586610316
1779786626984685000,6.01768505859375,-0.2810977640603669,-0.11532607750361784,0.19072715451717376
1779786626994766800,6.027766845703125,-0.3290729644119739,-0.1294507201743312,0.2293500229001045
1779786627004849000,6.037848876953125,-0.3292167567968368,-0.09716512852152809,0.20632512114346027
1779786627014931000,6.047930908203125,-0.33883331092596053,-0.03913677272181958,0.17339958761930466
1779786627025012000,6.058011962890625,-0.47683425290584563,0.006361643986403941,0.16948153739273547
1779786627035094000,6.068093994140625,-0.6088613811731338,0.049161176999472075,0.11408113721013069
1779786627045176000,6.078176025390625,-0.596923106098175,-0.0008511004040017724,0.0715033937215805
1779786627055258000,6.088258056640625,-0.4666191483616829,-0.06140941307274624,0.08081132029294967
1779786627065340200,6.098340087890625,-0.3257061183273792,-0.1477128462422639,0.0944300958007574
1779786627075422000,6.108421875,-0.130710784971714,-0.19762436668500302,0.1307645609855652
1779786627085503000,6.1185029296875,0.10685995378494262,-0.23200168818635863,0.10633271504044532
1779786627095585000,6.1285849609375,0.1751987277294509,-0.20102537076752633,0.08278700428009032
1779786627105667000,6.1386669921875,0.12512271917369217,-0.1640675495199859,0.017146949633955955
1779786627115749000,6.1487490234375,0.11095390856768936,-0.08698376185018569,0.002362052956223488
1779786627125831200,6.1588310546875,0.1522784736573696,0.0324417137962766,0.1051268463820219
1779786627135913000,6.168912841796875,0.20718732746336607,0.04686311092386022,0.2357552137672901
1779786627145994000,6.178993896484375,0.17724572338713332,0.045378845449164505,0.23438450993597507
1779786627156076000,6.189075927734375,0.1531155090034008,0.11461480569541453,-0.1097059908658266
1779786627166158000,6.199157958984375,0.11353986994028091,0.08374930997360497,-0.9127677556246518
1779786627176239900,6.209239990234375,-0.3374059084713459,-0.32982319825738665,0.4707710073441267
1779786627186322000,6.219322021484375,-0.5087585004329681,-0.17932605505883692,0.7035767236560583
1779786627196404000,6.229404052734375,-0.25052611845228817,0.03295675977948122,0.17021745045185088
1779786627206485000,6.239485107421875,-0.10191372955441474,0.06451989150978625,-0.17917700197696684
1779786627216567000,6.249567138671875,-0.15997428885698317,0.027404395482502876,0.16457973682582377
1779786627226649000,6.259649169921875,-0.22850716060148552,0.04564314980800263,0.1852911009430885
1779786627236731100,6.269731201171875,-0.19690673820124938,0.009710817416990175,0.14403729953467845
1779786627246813200,6.279813232421875,-0.12263504881011321,-0.06803167162355966,0.09765665663182735
1779786627256895000,6.28989501953125,-0.07620762588977813,-0.12009958464889786,0.049918753901124
1779786627266977000,6.29997705078125,-0.02965511528505012,-0.13846590174366719,0.0036404023289680477
1779786627277058000,6.31005810546875,0.03430560797201469,-0.14948990238476545,0.002653144857287407
1779786627287139800,6.320139892578125,0.06009469547867775,-0.15487499295659363,0.05132978974282741
1779786627297222000,6.330221923828125,0.047755456653703,-0.15373645391333848,0.045535424250364304
1779786627307304000,6.340303955078125,0.11542201215876266,-0.1422494662698358,0.04157528844773769
1779786627317386000,6.350385986328125,0.15533437236296013,-0.1267025722436607,0.05726093335747719
1779786627327468000,6.360468017578125,0.14319266540408135,-0.07543609352800995,0.009677344405651092
1779786627337549000,6.370549072265625,0.06698971568942069,-0.10892636652914807,-0.02161561948060989
1779786627347631000,6.380631103515625,-0.04696865365756675,-0.10961328934738412,-0.011489362263679503
1779786627357713000,6.390712890625,-0.12145080746160819,-0.10542071476206183,-0.047777065697312354
1779786627367795000,6.400794921875,-0.16167758564352988,-0.1294864856074564,-0.008644494226574897
1779786627377877000,6.410876953125,-0.17936289820419624,-0.11548927784184924,0.018088614398241044
1779786627387959000,6.420958984375,-0.15478256543278693,-0.08752993362401612,-0.010969137781858443
1779786627398040000,6.4310400390625,-0.17132217855704948,-0.02239208374582231,0.042486558073759076
1779786627408122000,6.4411220703125,-0.25455811391472816,0.04016956810196862,-0.025531916141510007
1779786627418204200,6.4512041015625,-0.3392565047740936,0.09200668631242588,-0.11196049179434775
1779786627428286000,6.461285888671875,-0.4223322628676891,0.08504007130335084,-0.09034662587940692
1779786627438368000,6.471367919921875,-0.4001742070734501,0.009664457524614409,-0.18516425969302652
1779786627448450000,6.481449951171875,-0.4098527205228805,-0.06315169929596595,-0.21884791810810564
1779786627458532000,6.491531982421875,-0.5131482232918962,-0.06164766054172068,-0.15219254893958567
1779786627468612900,6.50161279296875,-0.5680020955076441,-0.017700172203080726,-0.1240367140352726
1779786627478695000,6.51169482421875,-0.5107832842588425,0.024912231606896967,-0.05701835677325725
1779786627488777000,6.52177685546875,-0.356497525899671,0.06228461587154306,-0.00679740505516529
1779786627498859000,6.53185888671875,-0.172244590631593,0.14641974682495928,0.05943243217766284
1779786627508941000,6.541941162109375,-0.0034731925358995794,0.21813131253765894,0.1438134276509285
1779786627519022800,6.55202294921875,0.1088695765743032,0.27762426099721343,0.22484861982762813
1779786627529105000,6.56210498046875,0.195844022606872,0.31998237038571387,0.2914683331608772
1779786627539186000,6.57218603515625,0.2375637244939804,0.2838140920806676,0.30158173089623447
1779786627549268000,6.58226806640625,0.252997440469265,0.2059884730676189,0.32559915082156654
1779786627559350000,6.59235009765625,0.24556118952129036,0.1308194329779595,0.311573548078537
1779786627569432000,6.60243212890625,0.26942365634692833,0.07892134182788431,0.3780219964981079
1779786627579514000,6.61251416015625,0.28942133750319476,0.0589161623517517,0.4076356289952993
1779786627589596200,6.62259619140625,0.23786765761030837,0.0830846994518768,0.4119967468142509
1779786627599677200,6.63267724609375,0.17563595010293648,0.08967600574200041,0.3650023559272289
1779786627609759000,6.642759033203125,0.16083704316616057,0.0516091912060976,0.3630161505460739
1779786627619841000,6.652841064453125,0.13435231981184334,-0.025001416860846802,0.3811585409581661
1779786627629923000,6.662923095703125,0.08978606938719749,-0.10031829532282427,0.3099626057505607
1779786627640005000,6.673005126953125,0.000893149447441101,-0.060523999407188965,0.2710509835541248
1779786627650087200,6.683087158203125,-0.17474049910055472,-0.035843941721506414,0.1874918258577585
1779786627660169200,6.693169189453125,-0.31985739229917526,-0.02799765780107118,0.13248831603825093
1779786627670250000,6.70325,-0.3937561567246914,0.08718088272432796,0.049665655922889705
1779786627680332000,6.71333203125,-0.4122212032198906,0.15308392655504865,0.06083177758157253
1779786627690413800,6.723413818359375,-0.44864276216626164,0.18302293681539594,0.16271511199772357
1779786627700496000,6.733495849609375,-0.45810149538517,0.1930301342299208,0.15286591815650463
1779786627710578000,6.743577880859375,-0.42836102163791656,0.14151622009184212,0.0451519778907299
1779786627720660000,6.753659912109375,-0.4142939178407192,0.01757128055982757,-0.06980126597881317
1779786627730742000,6.763741943359375,-0.34019057075381276,-0.036320014251058456,-0.07723170824050903
1779786627740824000,6.773823974609375,-0.24451252071857452,-0.06244987573612015,-0.16358137343823909
1779786627750905000,6.783905029296875,-0.1650350793778896,-0.10559553247285075,-0.2601642633587122
1779786627760987100,6.793987060546875,-0.13907529321312903,-0.12366254696063697,-0.2890057424396276
1779786627771069000,6.80406884765625,-0.12789105137586593,-0.15136127661406062,-0.29693595091700553
1779786627781151000,6.81415087890625,-0.12635726593732832,-0.15994035005476326,-0.3990349739104509
1779786627791233000,6.82423291015625,-0.13277064011096953,-0.17026852305196225,-0.43252164844870566
1779786627801315000,6.834315185546875,-0.11580313869714737,-0.16193448301404714,-0.2595914319068193
1779786627811397000,6.844397216796875,-0.10712065054774284,0.02058606637031771,0.030032150170207023
1779786627821478100,6.85447802734375,-0.09096797264814377,0.22774474312793463,0.2371405306458473
1779786627831560000,6.864559814453125,-0.07285481746369041,0.3165320838013664,0.21768764215707778
1779786627841642000,6.87464208984375,-0.15848260726081206,0.273059437299706,0.12483341737091541
1779786627851723800,6.884723876953125,-0.19633155039548872,0.174604049771931,-0.06276654503643513
1779786627861805600,6.8948056640625,-0.15850713891386986,0.0422703397735022,-0.2980179009348154
1779786627871887600,6.9048876953125,-0.0868634690719191,0.13578820696701294,-0.5676882437855005
1779786627881969700,6.9149697265625,-0.14753335235635748,0.06773515919528436,-0.7138993802279233
1779786627892050700,6.92505078125,-0.08248424020754173,-0.3869300370316952,0.19543197120726108
1779786627902132700,6.9351328125,0.2648340087354183,-0.25082163080014286,0.6368582261234521
1779786627912214500,6.945214599609375,0.46275428962707515,-0.08022530056592077,0.45744390825927256
1779786627922296600,6.955296630859375,0.44201545298099515,-0.06769520621080882,0.08064765416383743
1779786627932378600,6.965378662109375,0.3453963227033615,-0.2260153803183697,-0.18812310949862002
1779786627942460400,6.97546044921875,0.2907072673941962,-0.28024501968855037,-0.30310674850642677
1779786627952542500,6.98554248046875,0.19272037416100501,-0.2196026271992363,-0.2818441802471876
1779786627962624500,6.99562451171875,0.18205635680556295,-0.21805236554993315,-0.08450549863576888
1779786627972705500,7.00570556640625,0.09197216298831626,-0.30033976801112294,0.08800444666743278
1779786627982787600,7.01578759765625,-0.07861938147293403,-0.26237097962275147,0.3783043205708265
1779786627992869600,7.02586962890625,-0.18758712119208648,-0.14906910142311824,0.2987450461655855
1779786628002951700,7.03595166015625,-0.14238953232765197,-0.11551471367720514,0.05721066447496414
1779786628013033700,7.04603369140625,-0.09535539395213126,-0.14216224464410915,-0.10628946042060851
1779786628023115500,7.056115478515625,-0.017396540480852127,-0.14169415220832451,-0.048888826331496237
1779786628033197600,7.066197509765625,0.058473195224069054,-0.22250885176844892,0.04411795866787433
1779786628043279600,7.076279541015625,0.10451952813863753,-0.24564517801031469,0.1385544842094183
1779786628053360600,7.086360595703125,0.06285245148791,-0.18327057316722348,0.16106968287825582
1779786628063442700,7.096442626953125,-0.055785636640526354,-0.12792235069642774,0.06053776307106018
1779786628073524700,7.106524658203125,-0.1391524683688767,-0.040822890044702215,-0.06960311305820942
1779786628083606800,7.116606689453125,-0.16404957547187804,0.09524097379222511,-0.06123334411978721
1779786628093688800,7.126688720703125,-0.1591571455215104,0.11091871852329932,-0.06322130306661129
1779786628103770600,7.1367705078125,-0.16500937868105248,0.1325584586650133,0.05286006805002689
1779786628113852700,7.146852783203125,-0.2694014993140474,0.07709860164644196,0.4031488389700651
1779786628123934700,7.156934814453125,-0.2568178755402565,0.04824432701603509,0.6703174281328916
1779786628134015500,7.167015380859375,-0.005467617756128311,0.08489452535281888,0.5266588987827301
1779786628144097500,7.17709765625,0.1718716473996639,0.10760166639718226,0.399928123357892
1779786628154179600,7.1871796875,0.17430442750453948,0.13187101525696926,0.33248949485719204
1779786628164261600,7.19726171875,0.2823404393315315,0.1411203252425883,0.22322364897429942
1779786628174343700,7.20734375,0.32843583555221556,0.11170374968745746,-0.031281273448467255
1779786628184425500,7.217425537109375,0.26336101357340813,0.02171300630732439,-0.2869856347888708
1779786628194507500,7.227507568359375,0.11845569903254509,-0.10779242146261966,-0.2752548649847507
1779786628204589600,7.237589599609375,-0.019532383465766905,-0.11022597788562997,-0.0009656301617622375
1779786628214670600,7.247670654296875,-0.06698153238296509,0.0008379166954429819,0.24831951178610323
1779786628224752600,7.257752685546875,-0.06962941654324531,0.09137498254645615,0.3571037116318941
1779786628234834700,7.267834716796875,-0.049025015365215946,0.12166053208899684,0.4419657686203718
1779786628244916700,7.277916748046875,0.040707273441553116,0.12277141594034618,0.375256038916111
1779786628254998800,7.287998779296875,0.04827332478165626,0.15365067532602697,0.2160661784350872
1779786628265080600,7.29808056640625,-0.03391980525851249,0.1971248744639568,0.15098434219360352
1779786628275162600,7.30816259765625,-0.13323767310082912,0.1581764273884706,0.13631634989380836
1779786628285244700,7.31824462890625,-0.18031506609618664,0.056890885335532944,0.08273965800702571
1779786628295326700,7.32832666015625,-0.14382511808872223,-0.01982364204690093,0.02527472651004791
1779786628305407500,7.338407470703125,-0.15648586221933364,-0.08519117021183482,0.07240648004114628
1779786628315489500,7.348489501953125,-0.18162965582609175,-0.0741568491061218,0.13419745804369448
1779786628325571600,7.358571533203125,-0.19483458983600138,-0.02769161264275899,0.13553367508351802
1779786628335653600,7.368653564453125,-0.12186346164941787,-0.002723043172166217,-0.00199029703438282
1779786628345735400,7.3787353515625,-0.01808160127720912,0.006953867408644873,-0.1167640926837921
1779786628355817500,7.3888173828125,0.05062427182197571,0.010326930888183414,-0.13023381510972976
1779786628365899500,7.3988994140625,0.09477613275945186,-0.0018177648955141194,-0.1725917783677578
1779786628375981600,7.408981689453125,0.02760170358631294,-0.12979564288817344,-0.10302198305726051
1779786628386063600,7.419063720703125,-0.07779051116704941,-0.17890267854761333,-0.08611410287618637
1779786628396144600,7.42914453125,-0.11404022067785262,-0.17296061168015003,-0.20537118141949176
1779786628406226700,7.439226806640625,-0.11140870313048362,-0.15307979836920274,-0.23125731782615183
1779786628416308700,7.449308837890625,-0.03952127396080177,-0.06986141693452373,-0.18861878406107424
1779786628426390500,7.459390625,0.007044073292613029,-0.013692932155984452,-0.050071898636221884
1779786628436472600,7.46947265625,0.019468666013213804,0.009507271368638612,0.0769452925145626
1779786628446554600,7.4795546875,0.043376195823284794,0.0017323265182087196,0.06194704534709453
1779786628456636700,7.48963671875,0.050532497318717645,-0.0544743485459825,0.020012275937199592
1779786628466718700,7.49971875,-0.06183014553573448,-0.11664453055788762,-0.10196166034936904
1779786628476800800,7.50980078125,-0.12591127573549746,-0.15669411640884354,-0.07203180150985718
1779786628486881800,7.5198818359375,-0.025513795962929724,-0.10629163411138579,-0.0382025971442461
1779786628496963800,7.5299638671875,0.07692424972653389,-0.05798901017000899,-0.006163783326745033
1779786628507045600,7.540045654296875,0.1303144791305065,-0.07305556420017964,0.03950315834879875
1779786628517127700,7.550127685546875,0.043407764571905136,-0.0496905711684376,0.08966741144359111
1779786628527209500,7.56020947265625,-0.06429272712382954,-0.02364507719831308,0.25280221015810966
1779786628537291500,7.57029150390625,-0.09188216488361359,0.010851607782836071,0.20388591129779815
1779786628547373600,7.58037353515625,-0.06583411591351032,-0.02777712636858923,0.17381167555153368
1779786628557455600,7.59045556640625,0.00739478642642498,-0.10138291974649764,0.16408756939470767
1779786628567537700,7.60053759765625,0.03871581192996818,-0.150047216607118,0.22649287990331649
1779786628577618700,7.61061865234375,0.022670681491494177,-0.13301503419294022,0.2012128926962614
1779786628587700500,7.620700439453125,0.021452540156675966,-0.10603834433690644,0.13448328924775121
1779786628597782500,7.630782470703125,-0.006321017431782093,-0.0851079489077907,0.102469025349617
1779786628607864600,7.640864501953125,-0.06785188547670841,-0.05250036332558375,0.0767407098531723
1779786628617946600,7.650946533203125,-0.09115326608717442,-0.07675533203356899,0.1232867724508047
1779786628628028700,7.661028564453125,-0.06341536433398723,-0.08182374873850494,0.26769173625409604
1779786628638110700,7.67111083984375,-0.005641804137610597,-0.047496499756840053,0.2962707650065422
1779786628648192800,7.68119287109375,0.005347203963564243,-0.050843613661080596,0.2542161686092615
1779786628658274600,7.691274658203125,-0.015394555291964205,-0.05270034744367003,0.1223807635217905
1779786628668356600,7.701356689453125,-0.036524437082244544,0.0002870704589615343,0.010604396122694015
1779786628678437600,7.711437744140625,-0.05076514159739017,0.04610845663165673,-0.008690086933970451
1779786628688519700,7.721519775390625,-0.0010819505886320256,0.06652100219912827,0.009574468553066253
1779786628698601700,7.731601806640625,0.0034592005431652068,0.05584149501360953,0.09322422714233398
1779786628708683800,7.741683837890625,-0.052906245279312134,0.08591585862403735,0.18509762419760226
1779786628718765800,7.751765869140625,-0.0832020148217678,0.1021613750393968,0.18988076682090757
1779786628728847600,7.76184765625,-0.02886485995650291,0.09001458091344684,0.16488544177412987
1779786628738929700,7.7719296875,0.07854337536096573,0.05658926290730014,0.13240706749558448
1779786628749011700,7.78201171875,0.20668577114939687,0.0337791501122294,0.023313071048259734
1779786628759093500,7.792093505859375,0.2950409309506416,0.06902085619084537,0.03302724033296108
1779786628769175600,7.802175537109375,0.2695966930925846,0.11389158772109076,0.09271627762019634
1779786628779257600,7.812257568359375,0.25450901407599447,0.12167811341146006,0.11574527103006839
1779786628789338600,7.822338623046875,0.3079728932380676,0.07295528673005755,0.15808452958762645
1779786628799420700,7.832420654296875,0.30197219151854515,0.06765839046491309,0.2517617611944675
1779786628809502700,7.842502685546875,0.23529870217144488,0.06895759996259584,0.2671796950787306
1779786628819584500,7.85258447265625,0.0930968013703823,0.062231186917563894,0.17111586059629916
1779786628829666600,7.86266650390625,0.08283902672827244,0.07472346087978221,0.05006371532976627
1779786628839748600,7.87274853515625,0.1617161640882492,0.11514881210741586,0.06667465839087963
1779786628849830400,7.882830322265625,0.2730465412855148,0.15619394833436234,0.031953473621606825
1779786628859912400,7.892912353515625,0.3249339649111032,0.16303491853661833,0.16601356902122497
1779786628869994500,7.902994384765625,0.25352117208242414,0.02604473591829883,0.19621815314888952
1779786628880076300,7.913076171875,0.1047170965373516,-0.08926407307339831,0.11524842742383479
1779786628890157600,7.923157470703125,-0.030733576437830923,-0.19484584188237786,0.0637695845991373
1779786628900239400,7.9332392578125,-0.09862053322792053,-0.25510162794059144,0.07963117059767245
1779786628910321400,7.9433212890625,-0.08877660008370876,-0.2412095884493552,0.10461363616287708
1779786628920403500,7.953403564453125,-0.024594927552342414,-0.17517054281458258,0.10907762983441352
1779786628930485500,7.963485595703125,0.05413782376772724,-0.10387630746481008,0.0973708254277706
1779786628940567600,7.973567626953125,0.04432135858575348,-0.054120644304063166,0.06965513550639152
1779786628950649600,7.983649658203125,-0.04001695308983326,-0.07360193690340966,0.06050444532334804
1779786628960731400,7.9937314453125,-0.07001754821115173,-0.08358842945662327,0.06423895567655563
1779786628970813400,8.0038134765625,-0.020122175185615196,-0.12135502807009033,0.11437515172064304
1779786628980895500,8.0138955078125,-0.0008399579554796219,-0.1196089241882786,0.12216039876937866
1779786628990977500,8.0239775390625,0.04379413354098797,-0.10233054846068844,0.10406126297712326
1779786629001059600,8.0340595703125,0.09699556237459182,-0.07800387992309406,0.11873743858337402
1779786629011140400,8.044140380859375,0.09848726223707198,-0.07292413353996817,0.15121405929625034
1779786629021222400,8.054222412109375,0.10491817206740378,-0.074115329785645,0.18232874400615692
1779786629031304400,8.064304443359376,0.12258476166129112,-0.10018538052500225,0.13516308820545672
1779786629041386200,8.07438623046875,0.08995849421150051,-0.1612490580331534,0.09876315656900406
1779786629051468300,8.08446826171875,0.02722351335710846,-0.22968568459525704,0.11937749005258083
1779786629061550300,8.09455029296875,-0.0024263412309344858,-0.232765311236307,0.07881225543022155
1779786629071632400,8.10463232421875,0.06405424675941467,-0.2088485204075463,0.02062368583381176
1779786629081714400,8.11471435546875,0.12052549104392528,-0.12624981437432578,0.019013328027725217
1779786629091796500,8.12479638671875,0.1329413113696035,-0.0450752137269359,0.02547229490876198
1779786629101878500,8.13487841796875,0.13628127858042716,-0.005298276513122255,0.004084638965129852
1779786629111960300,8.144960205078124,0.03768646431565285,0.0057129046039539385,0.033708792856335636
1779786629122042400,8.15504248046875,-0.045456513795256615,-0.0215227581319632,0.10791326223015785
1779786629132123400,8.165123291015625,-0.08290858483314514,-0.02234426711529959,0.1394604931384325
1779786629142205400,8.175205322265626,-0.16149112316071987,0.006630964730365667,0.10905892513394355
1779786629152287500,8.18528759765625,-0.21768705763518809,0.046094957829266786,-0.005866846206784248
1779786629162369500,8.19536962890625,-0.22711130406260488,0.13308018098417668,-0.09743746092319489
1779786629172451600,8.20545166015625,-0.21381693820357323,0.17828261042051016,-0.05838029277622699
1779786629182533400,8.215533447265624,-0.19964169785678385,0.1924852867634967,-0.010510288098454475
1779786629192615400,8.225615478515625,-0.18868834216594696,0.184083113392815,-0.03418342463076114
1779786629202697500,8.235697509765625,-0.1758463962495327,0.13217524976739659,-0.01821370208263397
1779786629212779500,8.245779541015626,-0.19189035307765007,0.12429063399741426,0.00883738645017147
1779786629222861600,8.255861572265625,-0.16580898635983465,0.09099986562374979,0.00794423700273037
1779786629232943600,8.265943603515625,-0.11931142994589172,0.08753421707348898,0.014442951372265814
1779786629243025700,8.276025634765626,-0.08145253167278133,0.14257407684801146,0.019472762233018873
1779786629253106400,8.2861064453125,0.011781043253210373,0.19859476435342802,0.034818215402960775
1779786629263188500,8.2961884765625,0.12925298737883567,0.2216120125265792,0.06376432390213012
1779786629273270300,8.306270263671875,0.20405191551446913,0.19874604592500253,0.13489011648297308
1779786629283352300,8.316352294921876,0.21011574559807777,0.1503493139593862,0.15452479127943514
1779786629293434400,8.326434326171874,0.23541385298371315,0.11734540883623994,0.23190555260181425
1779786629303516400,8.336516357421875,0.2913905917495489,0.07860567260798998,0.3167565036743879
1779786629313598500,8.346598388671875,0.3298328428685665,0.07498348178914747,0.33486148468554017
1779786629323680500,8.356680419921876,0.3695966979801655,0.11518754581576213,0.2631763046562671
1779786629333762300,8.36676220703125,0.3822247088849544,0.14428735617245547,0.20555472129285335
1779786629343844400,8.37684423828125,0.32567046249210835,0.17930990764163435,0.12997779452204702
1779786629353926400,8.386926513671876,0.2707715820908546,0.20029460880756378,0.13655249673724174
1779786629364008400,8.397008544921874,0.25617490146160127,0.1485377527590841,0.18338205245137212
1779786629374090500,8.407090576171875,0.2769388725489378,0.05927444230408873,0.1823299130499363
1779786629384172500,8.417172607421875,0.2525409288734197,-0.027314415644109247,0.180834706056118
1779786629394253600,8.427253662109376,0.15499474687874315,-0.14442527593895793,0.14014087661802768
1779786629404335600,8.437335693359374,0.0371568874835968,-0.1547360776762478,0.10424129571914673
1779786629414417400,8.44741748046875,-0.067869421133399,-0.0946296186945401,0.06116378601491451
1779786629424499500,8.45749951171875,-0.16577917574346065,-0.045213800213718784,0.05190203667283058
1779786629434581500,8.46758154296875,-0.15879881533682347,-0.03279972203726647,0.09425941540896891
1779786629444663600,8.47766357421875,-0.10079553917944431,-0.015261875672871246,0.14319675705730914
1779786629454745600,8.48774560546875,-0.08341361174583435,-0.0018334593653344198,0.17312603137493132
1779786629464827600,8.49782763671875,-0.08743979852199554,-0.04082041495982557,0.2014092920511961
1779786629474909400,8.507909423828124,-0.1262275020778179,-0.045417469559656455,0.07750877161622047
1779786629484991200,8.5179912109375,-0.1629927598953247,-0.027185270555817986,0.0257195476680994
1779786629495073300,8.5280732421875,-0.07049450893998145,-0.031233025276393163,0.036758828076720235
1779786629505155300,8.5381552734375,0.052848962134122844,-0.005833587824576534,0.1220101766437292
1779786629515237400,8.5482373046875,0.16281272715330122,-0.025564555752498563,0.16356968300044536
1779786629525319400,8.5583193359375,0.26458500241041183,-0.0967071373546496,0.1844903059542179
1779786629535400400,8.568400390625,0.3206196088433266,-0.15266334478911012,0.2639315069377422
1779786629545482500,8.578482421875,0.3541302487790584,-0.17798123458744958,0.2987894698292017
1779786629555564300,8.588564208984375,0.38123219071626663,-0.20048424962814895,0.2595844176441431
1779786629565646300,8.598646240234375,0.37579730618596074,-0.17111366863921285,0.1901589992403984
1779786629575728400,8.608728271484376,0.3767746267855167,-0.07793086948581039,0.13211656011641024
1779786629585810400,8.618810546875,0.34359365719556806,0.01913478870812687,0.13963058900833128
1779786629595892500,8.628892578125,0.28608605560064315,0.03372613443349255,0.15897534094750881
1779786629605974500,8.638974609375,0.24558687195181844,0.026353447957732715,0.14524375271499157
1779786629616056300,8.649056396484376,0.22651158460378645,-0.011957772076583932,0.250287596988678
1779786629626138400,8.659138427734375,0.08743921400010585,-0.14354915069155394,0.1616501131147146
1779786629636220400,8.669220458984375,-0.1077975268959999,-0.2466728040250018,0.028698855739831924
1779786629646302500,8.679302490234376,-0.29053777431249617,-0.29972651321729643,-0.15287468598484993
1779786629656384500,8.689384521484374,-0.3522241228967905,-0.2515235502581112,-0.16265023006796836
1779786629666466600,8.699466552734375,-0.3614478783160448,-0.17746327512795104,-0.09072364249825476
1779786629676548600,8.709548583984375,-0.2509130354106426,-0.10590667164810001,-0.03660451429784298
1779786629686630400,8.71963037109375,-0.13732815728485584,-0.10166549041438847,-0.008230068206787108
1779786629696711400,8.72971142578125,0.032048168451024685,-0.18571571956332772,-0.06126257021427154
1779786629706793500,8.73979345703125,0.13084931665956973,-0.24610170787246896,-0.10486264248788356
1779786629716875300,8.749875244140625,0.21853461437523364,-0.2609656063368544,-0.1342401281416416
1779786629726957300,8.759957275390626,0.305784443283081,-0.19711933977231383,-0.18619886343777178
1779786629737039400,8.770039306640625,0.39723406196832656,-0.14408350416342727,-0.17575287274718285
1779786629747121400,8.780121337890625,0.40243689130842686,-0.1085572774884291,-0.14419512044489383
1779786629757203500,8.790203369140626,0.3984814316809177,-0.057061428730003534,-0.18221300867199897
1779786629767285200,8.80028515625,0.35273557955026624,-0.04402072710478678,-0.11100772111415863
1779786629777367300,8.8103671875,0.2727344065964222,0.02969015919896774,0.042485389029979705
1779786629787449300,8.820449462890625,0.16668460015058517,0.09995356279681436,0.11429390317797661
1779786629797531400,8.830531494140626,0.0478793570280075,0.14371534670446998,0.030490999853610992
1779786629807613400,8.840613525390625,0.023253449815511702,0.11307631668229587,-0.0329348858743906
1779786629817695500,8.850695556640625,-0.03646715393705526,0.11421142165944911,-0.13285773387253283
1779786629827777300,8.86077734375,-0.14920271947383879,0.10935809987676329,-0.10841945818662643
1779786629837859300,8.870859375,-0.2300654776930809,0.08706113793533295,-0.1415863992512226
1779786629847941400,8.88094140625,-0.259532395195961,0.07057827823329717,-0.10247428604662417
1779786629858023400,8.8910234375,-0.2619756966948509,0.08632432982707396,-0.055735915747284884
1779786629868105500,8.90110546875,-0.21490999413728712,0.13038466742304153,-0.010043255108594894
1779786629878186500,8.9111865234375,-0.11938391979336738,0.17757018783483652,-0.04155599922537803
1779786629888268500,8.9212685546875,-0.007134678752091713,0.20279431666880846,-0.07007482222318649
1779786629898350600,8.9313505859375,0.09269698839783667,0.1699610645379871,-0.06389058063030242
1779786629908432400,8.941432373046876,0.14595511585474014,0.13460315276775509,-0.07987199361622332
1779786629918514400,8.951514404296875,0.1624047308743,0.09464761100895702,0.007972294053435325
1779786629928596500,8.961596435546875,0.1400000068426132,0.07639997012410313,0.10432429782748222
1779786629938678500,8.971678466796876,0.045641802667709994,0.08858214609068818,0.16743571077883243
1779786629948760600,8.981760498046874,0.005676872026058845,0.10933805260257795,0.20524434016942977
1779786629958842600,8.991842529296875,-0.0005097076543839649,0.12694772437745705,0.23002514568269253
1779786629968924400,9.00192431640625,0.02602992879152298,0.09478751266999169,0.26360709728896614
1779786629979006500,9.01200634765625,0.03407061190605164,0.04621732383361086,0.2943161238074303
1779786629989088500,9.022088623046875,0.026497546303272244,0.009079675340023822,0.29374563044309615
1779786629999170600,9.032170654296875,0.0016050879759248345,-0.03616286234441213,0.2321259173542261
1779786630009252400,9.04225244140625,-0.03785363757610321,-0.04534885673627723,0.23664134895205496
1779786630019334400,9.05233447265625,-0.08124154667006805,-0.03359972472498193,0.2966501197129488
1779786630029416400,9.06241650390625,-0.11961424881736747,-0.041085961427679285,0.41124738975167274
1779786630039498200,9.072498291015625,-0.13741176218139006,0.01907110436325893,0.3892109145104885
1779786630049580300,9.082580322265626,-0.2355178796137683,0.0559223782300949,0.3869184196591377
1779786630059662300,9.092662353515625,-0.27536126623498275,0.07370167095083743,0.43178573538959025
1779786630069744400,9.102744384765625,-0.21331775650978088,0.04399954731944017,0.349960854139924
1779786630079825400,9.112825439453125,-0.14883914685845373,0.0065716334752738475,0.3682780165970325
1779786630089907500,9.122907470703124,-0.05512627768265083,-0.045921884550992394,0.47222354423999785
1779786630099989500,9.132989501953125,0.003183306211233139,-0.07373859629458747,0.47103345767259597
1779786630110071300,9.1430712890625,0.1160170554424636,-0.10603817080697044,0.298701207023859
1779786630120153300,9.1531533203125,0.18754151021838186,-0.07411069014314561,0.17442366997003556
1779786630130235400,9.1632353515625,0.22596330307126045,-0.02345527426423505,0.12571370733678341
1779786630140317400,9.1733173828125,0.2742892165566794,0.00026432262514717876,0.0516746576577425
1779786630150399500,9.1833994140625,0.22203765406012535,-0.013190211364813149,-0.006401683735847472
1779786630160481500,9.1934814453125,0.20433248602151868,-0.041339465831289994,-0.08398293606638908
1779786630170563600,9.2035634765625,0.16041386758433654,-0.026705960322986354,0.03609890286326408
1779786630180645400,9.213645263671875,0.14169862745404244,-0.007378460912709124,0.09398469012081623
1779786630190727400,9.2237275390625,0.1177834988594055,0.014256242294283582,-0.09635960255861281
1779786630200809500,9.2338095703125,0.08742812635051087,0.018291863619070498,-0.17896657409667968
1779786630210891500,9.2438916015625,0.026723171752691267,0.10185180676672607,-0.2396808627784252
1779786630220973600,9.2539736328125,-0.044184009641408915,0.19198447936819865,-0.3184603849828243
1779786630231055600,9.2640556640625,-0.12163199098110199,0.2353987650124356,-0.3454436689764261
1779786630241137400,9.274137451171875,-0.22439325900925322,0.23683378451792522,-0.24254677360355853
1779786630251219500,9.284219482421875,-0.23151743006706235,0.21372193513019008,-0.177684717592597
1779786630261301500,9.294301513671876,-0.1962719291627407,0.13289811154869385,-0.16093874997496604
1779786630271383600,9.304383544921874,-0.13299392747282981,0.06573840958722867,-0.1904027448683977
1779786630281465600,9.314465576171875,-0.02042319482564926,0.006904014084662776,-0.219503751668334
1779786630291547600,9.324547607421875,0.11969605448246001,0.11439359155963175,-0.17736439959704875
1779786630301629400,9.33462939453125,0.2747276445065625,0.23514758499665184,-0.15552140110135076
1779786630311710500,9.34471044921875,0.404848044103384,0.2890749169520102,-0.1621954720377922
1779786630321792300,9.354792236328125,0.48054479786157606,0.30871728186458347,-0.11129472136199474
1779786630331874300,9.364874267578125,0.5239245053827762,0.2971948941141367,-0.069111530148983
1779786630341956400,9.374956298828126,0.3953355348706245,0.27521993980184195,-0.042152796074748033
1779786630352038400,9.385038330078125,0.19114684123396872,0.17226349626146256,-0.03872165258228778
1779786630362120400,9.395120361328125,0.045341362982988354,0.07543565513659269,-0.02846972315907478
1779786630372202500,9.405202392578126,-0.04220598756670951,0.006794135385844856,-0.07005085682570934
1779786630382284300,9.4152841796875,-0.1187748297180049,-0.02208652949456591,-0.005295768320560455
1779786630392366300,9.425366455078125,-0.20496144984113052,0.0016390861436491831,0.06615677199661732
1779786630402448400,9.435448486328125,-0.19933363655460998,0.0003667600863147527,0.09631400985121727
1779786630412530400,9.445530517578124,-0.15404840593934058,-0.03532886833883822,0.1740904924929142
1779786630422612500,9.455612548828125,-0.10355623606443405,-0.03355949317929335,0.25432138254940506
1779786630432694500,9.465694580078125,-0.08532731814635917,-0.09961876875134185,0.27982348807454105
1779786630442776300,9.4757763671875,-0.14628827506555245,-0.1758275819512084,0.26026538564562796
1779786630452858400,9.4858583984375,-0.2511760885273106,-0.21712889402946456,0.15611878247261046
1779786630462940400,9.4959404296875,-0.3337058849096298,-0.19409630215670912,0.07451952667236328
1779786630473022500,9.5060224609375,-0.3484720768868923,-0.1431002926792018,0.09015724078714847
1779786630483104500,9.5161044921875,-0.3225836023926735,-0.056592943568574264,0.18419570692181586
1779786630493186600,9.5261865234375,-0.27938389108087863,-0.037730705316178496,0.2990454904168844
1779786630503268600,9.5362685546875,-0.2710147249306552,-0.0917378610420972,0.36767011383175846
1779786630513350400,9.546350341796876,-0.26296936564100903,-0.18569562662336975,0.3882645735710859
1779786630523432400,9.556432373046874,-0.21861589945051818,-0.25722017273083325,0.3823655786603689
1779786630533514500,9.566514404296875,-0.10359481450915337,-0.3186472858570516,0.16935118901133536
1779786630543596500,9.576596435546875,-0.07895254068374634,-0.2819387997280806,0.06137246032953262
1779786630553678600,9.5866787109375,-0.14696871334407477,-0.19770232729204,0.049932782426476474
1779786630563760600,9.5967607421875,-0.2724491781805642,-0.07049484686669893,0.03481938444674015
1779786630573842400,9.606842529296875,-0.3375087843239307,-0.04105223268801346,0.041598669323325156
1779786630583924500,9.616924560546876,-0.4067337117195129,-0.12340177713260053,0.1157101997166872
1779786630594006500,9.627006591796874,-0.4755003739535808,-0.21531362476842478,0.11662146934270858
1779786630604088600,9.637088623046875,-0.5358581042826175,-0.27750235165059567,0.13337912739813326
1779786630614170400,9.64717041015625,-0.57138183760643,-0.2862339579050429,0.1197358019709587
1779786630624252400,9.65725244140625,-0.5919979246556758,-0.23085728565789757,0.06671849753260613
1779786630634333400,9.66733349609375,-0.5736708253264426,-0.12476156684425659,-0.04422960234880447
1779786630644415500,9.67741552734375,-0.4897428343176842,-0.00945567361214198,-0.0901210004299879
1779786630654497300,9.687497314453125,-0.43033787466883655,0.045176856603659686,-0.04757365207970142
1779786630664579300,9.697579345703126,-0.41574703925848006,0.10816957507878541,0.044079964745044706
1779786630674661400,9.707661376953125,-0.44024201356768605,0.13107195556745863,0.11688918036818503
1779786630684743400,9.717743408203125,-0.4643769223928451,0.04268816332677379,0.15810206524431705
1779786630694825500,9.727825439453126,-0.43358430924415586,-0.03871725040180608,0.17739596377909184
1779786630704907500,9.737907470703124,-0.3570353225708008,-0.11032348344335331,0.10817454351484775
1779786630714989300,9.7479892578125,-0.2622878313839435,-0.06610308731431142,-0.002031213566660881
1779786630725071400,9.7580712890625,-0.12514736042460425,0.03442321560285054,-0.012206570622324943
1779786630735153400,9.7681533203125,-0.03793780872821808,0.12881067783827893,0.08498948276042938
1779786630745235500,9.7782353515625,-0.015165968417190014,0.12282069844217039,0.1081675292521715
1779786630755317500,9.7883173828125,0.008670797711610794,0.06731841792082413,0.09636661682128905
1779786630765399600,9.798399658203126,-0.0374620444426313,0.0291299132340122,0.12407061630487441
1779786630775481300,9.8084814453125,-0.12972062315689398,-0.025562128616683184,0.16264087771773336
1779786630785563400,9.8185634765625,-0.20116788451075554,-0.05852213979917578,0.20564239957630634
1779786630795645400,9.8286455078125,-0.13673837469816208,-0.015169904806790873,0.23756138640642166
1779786630805727500,9.8387275390625,-0.027863044236507265,0.052248055365215984,0.23464929835200307
1779786630815809500,9.8488095703125,0.06578910772800445,0.08019487802819349,0.29013211612105366
1779786630825891600,9.8588916015625,0.11257418497959151,0.08372947276197373,0.31973931887745854
1779786630835973400,9.868973388671876,0.14124967811014502,0.03141995126679539,0.36297464949190617
1779786630846055400,9.879055419921874,0.15851647299779578,-0.0495123650573194,0.3791214821726083
1779786630856138000,9.889137939453125,0.1602174134304747,-0.15288987442082724,0.3052636342793703
1779786630866220000,9.899219970703125,0.137352122682333,-0.17497249949183313,0.13032149339318275
1779786630876302000,9.909302001953124,0.15025018270015716,-0.11758967505404724,0.018820435804128646
1779786630886383900,9.9193837890625,0.24280571680068969,-0.018573968496080485,-0.02291325807571411
1779786630896465700,9.929465576171875,0.3172831578969955,0.04725620189467445,0.09822890356183052
1779786630906547700,9.939547607421876,0.32738603423833845,0.06509789232714101,0.17382804216444492
1779786630916629800,9.949629638671874,0.3048269964277744,0.049740109398588535,0.15601824470758438
1779786630926711800,9.9597119140625,0.23266660010218618,0.025836543377581983,0.15907412514686584
1779786630936793900,9.9697939453125,0.14093641090989112,0.010757504325173795,0.1702437539368868
1779786630946876000,9.9798759765625,0.07199086671127006,0.02986835617693141,0.0992664299160242
1779786630956957700,9.989957763671875,0.01550732920076698,0.06764527525501325,-0.052238136759400366
1779786630967039700,10.000039794921875,-0.037694684154726564,0.07097694042837246,-0.06861994723975658
1779786630977121800,10.010121826171876,-0.061668246672023086,0.08666014678585343,-0.05372983662188053
1779786630987203800,10.020203857421874,-0.12887657354818657,0.07483441957412287,-0.021050386813282966
1779786630997286000,10.030285888671875,-0.22581251469003036,0.004388526415685191,0.014022095611691474
1779786631007368000,10.040367919921875,-0.3012333558499813,-0.03550132056260481,0.04401157568395137
1779786631017449700,10.05044970703125,-0.36795419147014613,-0.07249790291795506,0.05213759899437427
1779786631027531800,10.06053173828125,-0.40468437797427176,-0.05513539257086813,-0.030758710879087447
1779786631037613800,10.07061376953125,-0.4233832332253456,0.0014345263151451944,-0.04948796126842499
1779786631047696000,10.08069580078125,-0.45267362511754033,0.050763506762729955,-0.06553016453087329
1779786631057778000,10.09077783203125,-0.4732499646782875,0.08474133495194837,-0.05882979010939598
1779786631067860000,10.10085986328125,-0.4825906244754791,0.08952951907655224,-0.05184358448386192
1779786631077942000,10.11094189453125,-0.507736756169796,0.11841749504716134,0.052393035060167306
1779786631088023800,10.12102392578125,-0.5070446822524071,0.11757779282000846,0.13565467111468316
1779786631098105900,10.13110595703125,-0.49261751297116274,0.12229840073427185,0.18927695570886133
1779786631108188000,10.14118798828125,-0.4386380855023861,0.13047725021047518,0.22208500033318995
1779786631118270000,10.15127001953125,-0.355585708284378,0.12972550026141105,0.20341829378604886
1779786631128352000,10.16135205078125,-0.28958151476727795,0.10394180131591856,0.2277203758716583
1779786631138434000,10.17143408203125,-0.27338675129162143,0.08159200407555327,0.2447095045953989
1779786631148515800,10.181515869140625,-0.29336918007982893,0.029419484464847483,0.21605039634406564
1779786631158598000,10.191597900390626,-0.2867699279452674,-0.02175834328639321,0.19618775801062582
1779786631168680000,10.201679931640625,-0.2451461241806857,-0.04063278343323618,0.16506021381914615
1779786631178762000,10.211761962890625,-0.1855705024063587,-0.055058783670701085,0.18703706782758234
1779786631188844000,10.221843994140626,-0.16268882677899674,0.0028144637656863777,0.16532207962572573
1779786631198926000,10.231926025390624,-0.15481296057105062,0.025041849335934965,0.1054711297750473
1779786631209007900,10.2420078125,-0.16190206031547857,-0.004671371078211814,0.15818798996210098
1779786631219090000,10.25208984375,-0.16493454161286353,-0.028315500711742787,0.11398586014211178
1779786631229172000,10.262171875,-0.13850247089439072,-0.08372265942869707,0.066793316334486
1779786631239254000,10.27225390625,-0.172940153414011,-0.131818417420052,0.16068915912806986
1779786631249336000,10.282336181640625,-0.23838088609576225,-0.14215615283004007,0.1104641157567501
1779786631259417900,10.29241796875,-0.2956114243149757,-0.14070956161776557,-0.007413491126894951
1779786631269500000,10.3025,-0.32180618827939034,-0.11706207098336889,-0.03207446965277195
1779786631279581700,10.312581787109375,-0.29591069952249527,-0.06413862797408364,-0.04743921204507351
1779786631289663700,10.322663818359375,-0.24689853907227516,-0.04022246733298525,-0.055902504485845564
1779786631299745800,10.332745849609376,-0.2063140152275562,-0.07753929461864754,-0.03998305082023144
1779786631309827800,10.342827880859375,-0.22639468022584913,-0.11396938393134623,0.015881459742784498
1779786631319910000,10.352909912109375,-0.22259415543172506,-0.11776481242524459,0.00036766426861286163
1779786631329992000,10.362991943359376,-0.12817163101607001,-0.1395442258991301,-0.011268997511267661
1779786631340073700,10.37307373046875,-0.029925191797548902,-0.152393679268565,0.03963350673019886
1779786631350155800,10.38315576171875,0.08499530971301719,-0.12735611338210293,0.12870061419308185
1779786631360237800,10.39323779296875,0.18591537032127378,-0.10312601882047019,0.24441432104110716
1779786631370320000,10.40331982421875,0.15214519353336653,-0.11285160454832949,0.30475510023534297
1779786631380402000,10.41340185546875,0.08659690882391295,-0.157154518728517,0.2484948683530092
1779786631390484000,10.42348388671875,0.06824994488358498,-0.20042066460633648,0.09314999286234378
1779786631400565800,10.433565673828125,0.0730628981232643,-0.2318707370167598,0.0019797756403684614
1779786631410647800,10.443647705078124,0.13915362827950156,-0.14471034909118896,-0.043566754525899885
1779786631420729900,10.453729736328125,0.18349895682930945,-0.08930129981124774,-0.07191372808814048
1779786631430812000,10.46381201171875,0.1949170074224472,-0.07622527114432305,-0.015565233400464057
1779786631440894000,10.47389404296875,0.14582769008278845,-0.01956014825552702,0.05635258634090423
1779786631450976000,10.48397607421875,0.10300912357568741,0.025283585669938474,0.0868225434064865
1779786631461057800,10.494057861328125,0.02829553563594818,0.06372901512673124,0.11713818669319152
1779786631471139800,10.504139892578126,-0.04660859730667434,0.1289959164783824,0.11529343560934066
1779786631481222000,10.514221923828124,-0.10195349530922249,0.2229411787711084,0.06349018313586711
1779786631491304000,10.524303955078125,-0.1053705920100212,0.2834968793576583,0.07693827825188636
1779786631501386000,10.534385986328125,-0.0751636697947979,0.2770593936560675,0.031128713235259054
1779786631511468000,10.544468017578126,-0.10686696804761886,0.2644070702939294,0.002374327915906906
1779786631521549800,10.5545498046875,-0.15495090773701667,0.2250260952863842,-0.020392799687385558
1779786631531631900,10.5646318359375,-0.17402151890993117,0.168639898936823,-0.0515396331012249
1779786631541714000,10.5747138671875,-0.11969488543868065,0.1488889042843133,-0.10408464385271071
1779786631551796000,10.5847958984375,-0.0946644799453672,0.20198183124214408,-0.154980133831501
1779786631561878000,10.5948779296875,-0.10237317289286292,0.23865086214356124,-0.13462708163261414
1779786631571960000,10.6049599609375,-0.08622750012278556,0.23685818830681962,-0.1872749682366848
1779786631582041900,10.615041748046876,-0.061878647152846675,0.20927156812520697,-0.19666297430694102
1779786631592124000,10.6251240234375,-0.007183764891093596,0.17411233899854123,-0.16578911261558532
1779786631602206000,10.6352060546875,0.013337620478868484,0.11101165750375948,-0.10513619873225688
1779786631612288000,10.6452880859375,-0.012623334729671478,0.07760473367082886,-0.05467910017073154
1779786631622370000,10.6553701171875,-0.03426116604208946,0.009547571412986143,-0.002904489269852638
1779786631632451800,10.665451904296875,0.040655835515260696,-0.010172425313061102,0.04644786292016506
1779786631642534000,10.675533935546875,0.09580547580718994,-0.004611083125183359,0.12706044577062128
1779786631652615700,10.68561572265625,0.11996142742037773,0.05654457438220269,0.22428280263841152
1779786631662697700,10.69569775390625,0.11757306184596382,0.07497441256670281,0.22544074050188062
1779786631672779800,10.70577978515625,0.08687047420144081,0.02866455161143094,0.23109131360948085
1779786631682861800,10.71586181640625,0.018227739741140975,-0.05204271465199999,0.17210954780876636
1779786631692944000,10.72594384765625,-0.035249008035659786,-0.14085573775595986,0.13706687600016593
1779786631703026000,10.73602587890625,-0.04731003270745277,-0.17795900448933244,0.14137947850227356
1779786631713107700,10.746107666015625,-0.00992751977443695,-0.1880161419928074,0.12399988915622234
1779786631723189800,10.756189697265626,-0.004479766629403457,-0.1390877234364394,0.13416998551487921
1779786631733271800,10.766271728515624,0.009822314967447891,-0.08730668279477395,0.16681144140064716
1779786631743353900,10.776353759765625,-0.017298349936539305,-0.07159617743841372,0.22371581640541552
1779786631753436000,10.786435791015625,-0.04037291778749786,-0.06886330927526578,0.2076268513917923
1779786631763518000,10.79651806640625,-0.04159107053875923,-0.08702930889180861,0.17194763524532317
1779786631773599700,10.806599853515625,0.030964462584257123,-0.09942078022751956,0.18579495881199837
1779786631783681800,10.816681884765625,0.10956396117978728,-0.08567459721406921,0.17779051605463028
1779786631793763800,10.826763916015626,0.1549450625181198,-0.08406833106121048,0.12293722836077213
1779786631803846000,10.836845947265624,0.15882394977807998,-0.06902359613720327,-0.07557634224891663
1779786631813928000,10.846927978515625,0.2241489471256733,-0.08638918435736559,-0.12893734555840491
1779786631824010000,10.857010009765625,0.2933119152009487,-0.07286710155652835,-0.06032148997187614
1779786631834091800,10.867091796875,0.24590485185980795,-0.061068550046090964,-0.03928571620583534
1779786631844173800,10.877173828125,0.20494389591813086,-0.13836688921544701,-0.028597733452916142
1779786631854255000,10.887255126953125,0.13789223004155793,-0.1525306035212241,-0.009095745125412941
1779786631864337200,10.897337158203126,0.13076573002934455,-0.11537172500994056,-0.06174012459814548
1779786631874419200,10.907419189453124,0.12175708779864944,-0.0655487048345618,-0.034196284112334246
1779786631884501200,10.917501220703125,0.1403635885911528,0.016289698050380684,-0.04856850833594799
1779786631894583300,10.927583251953125,0.09346038311892188,0.06830869390007574,-0.037226445588469506
1779786631904665300,10.937665283203126,-0.0345066561026033,0.14428637892492116,-0.03548632392287254
1779786631914747100,10.9477470703125,-0.13957915108203886,0.1666845088190399,0.007830255234241485
1779786631924829200,10.9578291015625,-0.16610473616970703,0.1658405688081868,0.0583189179778099
1779786631934911200,10.9679111328125,-0.14663781915558502,0.18709455190217122,0.0951969885200262
1779786631944993300,10.9779931640625,-0.05859948848485946,0.17590685773249715,0.12924538859426973
1779786631955075300,10.988075439453125,0.08730769657492637,0.18995131130646914,0.12830840000510216
1779786631965157400,10.998157470703125,0.18207274168478324,0.20752609443105757,0.11408815147280692
1779786631975239200,11.0082392578125,0.2368494387447834,0.2665351866301149,0.06531798308491707
1779786631985321200,11.0183212890625,0.2767676076352596,0.279069326972682,0.006822539496421813
1779786631995403300,11.0284033203125,0.28873160167336465,0.23901494621559977,-0.042401217877864834
1779786632005485300,11.0384853515625,0.27228315569758416,0.2350558333262801,-0.05062660990953445
1779786632015567400,11.0485673828125,0.2363561022698879,0.24824105798872187,-0.008120762613415718
1779786632025649400,11.0586494140625,0.1827086832344532,0.2523807881419547,0.08869418249726295
1779786632035731200,11.068731201171875,0.1267021247190889,0.2590343460133299,0.15825111832618713
1779786632045813200,11.078813232421876,0.12272036160654387,0.2330197609214112,0.13651742542386056
1779786632055895300,11.088895263671875,0.15269582228660583,0.2401337941776961,0.04849135144650936
1779786632065977300,11.098977294921875,0.14752630156106314,0.19791396074872464,-0.03237432938218117
1779786632076059400,11.109059326171876,0.03956744662350975,0.15302140097916125,-0.04503215090334415
1779786632086141400,11.119141357421874,-0.0809843387722969,0.10493216406013817,-0.09347089537978172
1779786632096223200,11.12922314453125,-0.1019873975788243,0.05329254118315875,-0.02968845129907131
1779786632106305300,11.13930517578125,-0.06480944904088974,0.02651015918967314,0.07615326535403728
1779786632116388400,11.149388427734374,-0.03144843757576309,0.011930402295757085,0.11692366715967654
1779786632126470400,11.159470458984375,-0.02576923202872276,0.045580523767415435,0.1479734699398279
1779786632136552400,11.169552490234375,-0.06708323919177055,0.11842824477003887,0.15493629468977452
1779786632146634200,11.17963427734375,-0.11200489719165488,0.16195530660636723,0.10461831233799457
1779786632156716300,11.18971630859375,-0.10040449403524399,0.12382293428727426,0.024728783065080643
1779786632166798300,11.19979833984375,-0.08933832561969757,0.07703875208483077,0.023740356549620627
1779786632176880400,11.20988037109375,-0.06753916626572609,0.002877911790180951,0.10684066456258297
1779786632186962400,11.21996240234375,-0.023809896388184277,-0.05768267503404058,0.18765023128986358
1779786632197044500,11.23004443359375,0.025305121648311613,-0.059086130357487124,0.2535983289718628
1779786632207126300,11.240126220703125,0.08285482708560303,-0.042073995217494664,0.2666857740819454
1779786632217208000,11.2502080078125,0.09890926877511665,0.0380944834275404,0.1935492262005806
1779786632227290000,11.2602900390625,0.16162148980842903,0.1880757997581735,0.29277649314999576
1779786632237372200,11.2703720703125,0.4659025245249271,0.21662273460561407,0.28341946673989293
1779786632247454200,11.2804541015625,0.5987643500506877,0.2522191313068382,0.3185439716130495
1779786632257536300,11.290536376953124,0.5782336031973362,0.2512240010559559,0.3539671671718359
1779786632267618300,11.300618408203125,0.5687538271903991,0.2305323828187771,0.43895723445415497
1779786632277700000,11.3107001953125,0.634350042694807,0.17914490807196123,0.46057986819744107
1779786632287782100,11.3207822265625,0.678446374052763,0.15060717031112872,0.46628597088456153
1779786632297864200,11.3308642578125,0.6696551648318767,0.14960363755808212,0.4647714746683836
1779786632307946200,11.3409462890625,0.6437047310173512,0.13968137848065235,0.3684399291604757
1779786632318028300,11.3510283203125,0.5454045157849788,0.09326066842889413,0.2442261049926281
1779786632328110300,11.3611103515625,0.3783177645742893,0.03896720657488331,0.10317395874857901
1779786632338192100,11.371192138671875,0.16235095486044882,0.024457640256790907,0.12084756260514258
1779786632348274200,11.381274169921875,0.03811901051402092,0.060984018134372306,0.0843476777255535
1779786632358356200,11.391356201171876,-0.05815409193807281,0.0838400204643607,0.044237785655260084
1779786632368438300,11.401438232421874,-0.22851181851029395,0.08636453397329896,0.032816227930784224
1779786632378520300,11.411520263671875,-0.41392566905021666,0.1442830361903645,0.035575171250104905
1779786632388602400,11.421602294921875,-0.5119616803884506,0.24089438502034172,-0.00807750799357891
1779786632398684200,11.43168408203125,-0.46657472469806666,0.279733709165547,-0.046806174838542935
1779786632408766200,11.44176611328125,-0.278059401011467,0.3103648298759013,-0.056502808466553686
1779786632418848300,11.45184814453125,-0.07782908961176872,0.2965320462912321,-0.03283201002180576
1779786632428930300,11.461930419921876,0.04000467813014984,0.2669731944548897,0.021956980264186857
1779786632439013000,11.47201318359375,0.11992167993187904,0.21327722356999293,0.0489034393787384
1779786632449095200,11.48209521484375,0.19477555312514305,0.18190991580588742,0.036787469649314876
1779786632459177200,11.49217724609375,0.25366496446728704,0.15579417189443484,-0.005260112485289573
1779786632469259300,11.50225927734375,0.2912017911791801,0.1726557287157513,0.020177111110091208
1779786632479341300,11.51234130859375,0.33745676187574863,0.20599985297815873,0.061922495427727695
1779786632489423400,11.52242333984375,0.3118418436259031,0.23397258640052748,0.10291560007333755
1779786632499505400,11.53250537109375,0.2261789916485548,0.20355532763656228,0.08689327055513858
1779786632509587200,11.542587158203125,0.16410335148572922,0.1119104603738524,0.01295826577246189
1779786632519669200,11.552669189453125,0.16716390810012816,0.008124979847518261,-0.037787002080678936
1779786632529751300,11.562751220703126,0.14916998624801636,-0.054945285959402096,0.005583353090286254
1779786632539833300,11.572833251953124,0.14509703772068022,-0.09735878793010487,0.04490238704383373
1779786632549915400,11.582915283203125,0.12409516622424124,-0.07882438425943256,0.1151782847970724
1779786632559997400,11.59299755859375,0.0693459142935928,-0.07184226572054904,0.11569850927889347
1779786632570079200,11.603079345703126,0.014522437216108665,-0.09230577885685488,0.02163490870296955
1779786632580161300,11.613161376953125,-0.04266249916255474,-0.13223574778297914,-0.05507949766516685
1779786632590243300,11.623243408203125,-0.09082476478517056,-0.17868910886216907,-0.012087912678718567
1779786632600325400,11.633325439453126,-0.12914367265230975,-0.20736566143864765,0.011889759758114814
1779786632610407400,11.643407470703124,-0.18286007440388202,-0.2162568239026703,0.00877425808608532
1779786632620489500,11.653489501953125,-0.23159047703696414,-0.22343250595200806,-0.06616553982496261
1779786632630571300,11.6635712890625,-0.28767595514059063,-0.1624742159139365,-0.09500935699343681
1779786632640653300,11.6736533203125,-0.3377244729012251,-0.08301533314324915,-0.1256219374001026
1779786632650735400,11.6837353515625,-0.402921459954977,-0.02085080455399584,-0.11938450431525706
1779786632660817200,11.693817138671875,-0.43634617517292495,-0.0057854652333771805,-0.11701602161824702
1779786632670899200,11.703899169921876,-0.4460089065313339,-0.05122833866234869,-0.14712708224356175
1779786632680981200,11.713981201171874,-0.48299745171070096,-0.06580262936328071,-0.11544716486632824
1779786632691063000,11.72406298828125,-0.503864883172512,-0.07958708486077375,-0.07536708341240883
1779786632701146400,11.734146484375,-0.4940560213416815,-0.11347462268434465,0.021281272959709167
1779786632711228400,11.744228515625,-0.47909167644381523,-0.06098645212005358,0.0706359632372856
1779786632721310500,11.754310546875,-0.4337263480633497,0.030756512072135228,0.015990180814266203
1779786632731392300,11.764392333984375,-0.39173488003015516,0.0827975987393409,0.01820142712295055
1779786632741474000,11.77447412109375,-0.3321206615447998,0.09829310963815077,0.0012497078001499175
1779786632751556000,11.78455615234375,-0.29613400515066457,0.05865045148711651,-0.07764788782596588
1779786632761638100,11.79463818359375,-0.3387818729996681,0.052884695601207204,-0.06781681416332722
1779786632771720200,11.80472021484375,-0.3260942408621311,0.038747860169201155,-0.013131284251809119
1779786632781802200,11.81480224609375,-0.28093232609927654,0.025883026567543856,0.09194587776958942
1779786632791884300,11.82488427734375,-0.2544967573826201,0.015561306144017725,0.12695289374291896
1779786632801966000,11.834966064453125,-0.2858335238779895,0.0007352714550099335,0.03879997851550579
1779786632812048100,11.845048095703126,-0.40340076790452,0.019596584975509902,-0.05753332055807113
1779786632822130200,11.855130126953124,-0.5652244840204715,0.036615462666831446,-0.1013753848940134
1779786632832212200,11.865212158203125,-0.701162063729763,0.028893487829365766,-0.12505319760143757
1779786632842294300,11.875294189453125,-0.786530901196599,0.04120665606474504,-0.10872867026627063
1779786632852376600,11.88537646484375,-0.8421370530843735,0.03334076326154172,-0.049018005669116974
1779786632862458600,11.895458740234375,-0.8421464054346084,0.011285167761356569,0.06061784256994724
1779786632872540700,11.905540771484375,-0.8098182532817125,0.002043933767627459,0.10333820939958095
1779786632882622700,11.915622802734376,-0.7780255231797695,0.015531155317637603,0.09790624747872352
1779786632892704800,11.925704833984375,-0.7640326536625623,0.03900789477829821,0.1258709437251091
1779786632902786800,11.935786865234375,-0.7189128244757652,0.10987750237467699,0.12104513100385665
1779786632912868900,11.945868896484376,-0.6386310810148715,0.15163643116047604,0.10345336021184921
1779786632922951700,11.95595166015625,-0.5674748932957648,0.15582849428914486,0.15583236674666404
1779786632933033700,11.96603369140625,-0.5089484700471163,0.14652559095276518,0.18090543320477007
1779786632943115800,11.97611572265625,-0.46841363056302066,0.07345078319599851,0.21399229477047918
1779786632953197800,11.98619775390625,-0.43276656312048434,-0.01663384901266545,0.2073825212419033
1779786632963279600,11.996279541015625,-0.4423258341044187,-0.08548334895828738,0.16186638621389865
1779786632973361700,12.006361572265625,-0.505606758403778,-0.13975569495903328,0.06233925953507423
1779786632983443700,12.016443603515626,-0.6249164439171553,-0.14372755773207171,-0.042705753782391546
1779786632993525800,12.02652587890625,-0.7096352930426597,-0.11156150993886403,-0.12482406502068041
1779786633003607800,12.03660791015625,-0.8157347838491201,-0.0662032780194655,-0.13986615132987498
1779786633013689600,12.046689697265625,-0.8858540297359228,-0.04562617127373814,-0.1590443145304918
1779786633023771600,12.056771728515624,-0.8541507314831018,-0.1052681819483172,-0.1581423972547054
1779786633033853400,12.066853515625,-0.7599509373068809,-0.1646042136799544,-0.11633446909487247
1779786633043935500,12.076935546875,-0.7033306399405003,-0.22471810704944653,-0.12998188617527484
1779786633054017500,12.087017578125,-0.5926286237746476,-0.21580347237829117,-0.16007658018767834
1779786633064099600,12.097099609375,-0.47517771787047386,-0.14430075451014562,-0.13111644316315652
1779786633074181600,12.107181640625,-0.3986871833860874,-0.07217884529773146,-0.08799450979530811
1779786633084263700,12.117263671875,-0.37473756799995894,-0.03481616729305824,-0.050748774984478946
1779786633094345500,12.127345458984376,-0.33462826045155525,-0.09053405647659674,-0.06574468406438827
1779786633104428500,12.137428466796875,-0.25466506315423176,-0.18241331701707095,-0.11602116536200045
1779786633114510600,12.147510498046875,-0.15976851888550445,-0.2746942354273051,-0.03456102577149868
1779786633124592600,12.157592529296876,-0.05216097986996174,-0.3301611980400979,0.04002279830873012
1779786633134674400,12.16767431640625,-0.03201716824127361,-0.34581118711456654,-0.0115635965436697
1779786633144756500,12.177756591796875,-0.166707414770592,-0.3050429224670864,-0.05357376927733421
1779786633154838500,12.187838623046876,-0.3355266705960035,-0.2822164110930636,-0.08433774085342884
1779786633164920600,12.197920654296874,-0.43490065253973004,-0.24205825943425296,-0.09038637336790561
1779786633175002600,12.208002685546875,-0.5469108286947012,-0.18700926650520414,-0.02459434303045273
1779786633185084700,12.218084716796875,-0.7085889988601207,-0.1330784913505893,0.06740589527487754
1779786633195166500,12.22816650390625,-0.8408744858026505,-0.06256140981919597,0.12801087836325167
1779786633205248500,12.23824853515625,-0.8788076183557509,0.0020261994648259132,0.14523556940853594
1779786633215330600,12.24833056640625,-0.8421563423067331,0.07500607721344567,0.11218494819998741
1779786633225412600,12.25841259765625,-0.7919792297303676,0.13823270490914583,0.11563771900236607
1779786633235494700,12.26849462890625,-0.6981254725128412,0.2137135143617168,0.13597732719779013
1779786633245576700,12.27857666015625,-0.6250187352478503,0.236130860412959,0.16811492521464824
1779786633255658800,12.28865869140625,-0.5726397287130356,0.218473056913726,0.2098053644746542
1779786633265740500,12.298740478515626,-0.5213964482098817,0.18639082407960667,0.24248189167380332
1779786633275823600,12.30882373046875,-0.41974399994015693,0.1311796171930153,0.25402619899511336
1779786633285905700,12.31890576171875,-0.275008196747303,0.11111221353509462,0.27406828554868695
1779786633295987700,12.32898779296875,-0.19895430011451243,0.11515512311719357,0.20654899302721022
1779786633306069500,12.339069580078124,-0.2127981165498495,0.14476639012736267,0.06121990011632442
1779786633316151600,12.349151611328125,-0.3252577900379896,0.2164145900139585,0.029928689795732495
1779786633326233600,12.359233642578126,-0.4245645519644022,0.2836951784087345,0.08408288930952548
1779786633336315600,12.369315673828124,-0.49937575505971904,0.30425091357287015,0.15303133785128592
1779786633346397700,12.379397705078125,-0.534122658792138,0.2655451344131492,0.13306231653392314
1779786633356479700,12.389479736328125,-0.6380196711182594,0.19888103394890203,0.08658405847549439
