time,seconds_elapsed,z,y,x
1779786621017570600,0.050570556640625,-0.717010498046875,-0.7971038818359375,-0.1062774658203125
1779786621027651600,0.060651611328125,-0.7245941162109375,-0.7940673828125,-0.109039306640625
1779786621037733600,0.070733642578125,-0.7212677001953125,-0.789276123046875,-0.1091766357421875
1779786621047815700,0.080815673828125,-0.7039794921875,-0.780242919921875,-0.1110076904296875
1779786621057896700,0.090896728515625,-0.6755828857421875,-0.75860595703125,-0.1114959716796875
1779786621067978500,0.100978515625,-0.6479339599609375,-0.74188232421875,-0.1166229248046875
1779786621078060500,0.111060546875,-0.6345062255859375,-0.735321044921875,-0.1214141845703125
1779786621088141600,0.1211416015625,-0.6416168212890625,-0.7329864501953125,-0.1251678466796875
1779786621098223400,0.131223388671875,-0.656524658203125,-0.7318572998046875,-0.1298675537109375
1779786621108305400,0.141305419921875,-0.66424560546875,-0.73187255859375,-0.131439208984375
1779786621118386400,0.151386474609375,-0.664703369140625,-0.729248046875,-0.123626708984375
1779786621128468500,0.161468505859375,-0.66400146484375,-0.730133056640625,-0.119171142578125
1779786621138550500,0.171550537109375,-0.6611480712890625,-0.7295379638671875,-0.11273193359375
1779786621148631600,0.181631591796875,-0.6450042724609375,-0.731201171875,-0.1060638427734375
1779786621158713600,0.191713623046875,-0.613525390625,-0.7333526611328125,-0.10614013671875
1779786621168795600,0.201795654296875,-0.5812225341796875,-0.7332916259765625,-0.1048431396484375
1779786621178876400,0.21187646484375,-0.5607147216796875,-0.7320556640625,-0.104644775390625
1779786621188958500,0.22195849609375,-0.555023193359375,-0.7314910888671875,-0.109344482421875
1779786621199040500,0.23204052734375,-0.5616302490234375,-0.743927001953125,-0.1085662841796875
1779786621209121500,0.24212158203125,-0.5793609619140625,-0.745635986328125,-0.11566162109375
1779786621219203600,0.25220361328125,-0.6005401611328125,-0.737548828125,-0.117584228515625
1779786621229285400,0.262285400390625,-0.6254730224609375,-0.73321533203125,-0.120330810546875
1779786621239366700,0.27236669921875,-0.6330718994140625,-0.735992431640625,-0.1238250732421875
1779786621249448400,0.282448486328125,-0.624237060546875,-0.7447509765625,-0.11627197265625
1779786621259530500,0.292530517578125,-0.6097564697265625,-0.7551727294921875,-0.106658935546875
1779786621269611500,0.302611572265625,-0.5986175537109375,-0.765350341796875,-0.09161376953125
1779786621279693600,0.312693603515625,-0.58612060546875,-0.7721710205078125,-0.0796356201171875
1779786621289775600,0.322775634765625,-0.5703277587890625,-0.7738037109375,-0.07568359375
1779786621299856400,0.3328564453125,-0.558502197265625,-0.7762908935546875,-0.0809173583984375
1779786621309938400,0.3429384765625,-0.55865478515625,-0.7847900390625,-0.088623046875
1779786621320020500,0.3530205078125,-0.5666961669921875,-0.7936248779296875,-0.0946197509765625
1779786621330101500,0.3631015625,-0.573150634765625,-0.7915496826171875,-0.09735107421875
1779786621340183600,0.37318359375,-0.5856781005859375,-0.7856903076171875,-0.0972137451171875
1779786621350265600,0.383265625,-0.6034088134765625,-0.78173828125,-0.09173583984375
1779786621360346600,0.3933466796875,-0.617889404296875,-0.7860870361328125,-0.0821990966796875
1779786621370428700,0.4034287109375,-0.630279541015625,-0.7905731201171875,-0.066558837890625
1779786621380510500,0.413510498046875,-0.6448974609375,-0.7951812744140625,-0.0514984130859375
1779786621390591700,0.423591796875,-0.6560211181640625,-0.8093414306640625,-0.0398712158203125
1779786621400673500,0.433673583984375,-0.647430419921875,-0.8204803466796875,-0.0325469970703125
1779786621410754600,0.443754638671875,-0.6250152587890625,-0.8168182373046875,-0.04266357421875
1779786621420836400,0.45383642578125,-0.5948333740234375,-0.809478759765625,-0.059356689453125
1779786621430918400,0.46391845703125,-0.5758209228515625,-0.8034820556640625,-0.065093994140625
1779786621440999400,0.47399951171875,-0.5699920654296875,-0.80108642578125,-0.0721282958984375
1779786621451081500,0.48408154296875,-0.5870513916015625,-0.8001708984375,-0.0684967041015625
1779786621461163500,0.49416357421875,-0.6144561767578125,-0.79681396484375,-0.0625152587890625
1779786621471244500,0.50424462890625,-0.63067626953125,-0.7943267822265625,-0.0605316162109375
1779786621481326600,0.51432666015625,-0.6447601318359375,-0.781036376953125,-0.0519256591796875
1779786621491408600,0.52440869140625,-0.6754608154296875,-0.7616119384765625,-0.057769775390625
1779786621501489400,0.534489501953125,-0.663421630859375,-0.755279541015625,-0.0728912353515625
1779786621511571500,0.544571533203125,-0.6795806884765625,-0.756103515625,-0.056121826171875
1779786621521653500,0.554653564453125,-0.6555328369140625,-0.76519775390625,-0.0582122802734375
1779786621531734500,0.564734619140625,-0.625732421875,-0.775909423828125,-0.0558929443359375
1779786621541816600,0.574816650390625,-0.642242431640625,-0.7831878662109375,-0.0359344482421875
1779786621551898400,0.5848984375,-0.656982421875,-0.7867584228515625,-0.037567138671875
1779786621561979600,0.594979736328125,-0.6750335693359375,-0.7701416015625,-0.0540008544921875
1779786621572061400,0.6050615234375,-0.6596221923828125,-0.7476043701171875,-0.083526611328125
1779786621582143500,0.6151435546875,-0.6495513916015625,-0.7331085205078125,-0.0881500244140625
1779786621592224500,0.625224609375,-0.671295166015625,-0.7268829345703125,-0.0901641845703125
1779786621602306600,0.635306640625,-0.6673736572265625,-0.742523193359375,-0.0749969482421875
1779786621612388600,0.645388671875,-0.68597412109375,-0.7657318115234375,-0.0526580810546875
1779786621622469400,0.655469482421875,-0.7129974365234375,-0.783935546875,-0.046661376953125
1779786621632551400,0.665551513671875,-0.7398529052734375,-0.7558746337890625,-0.048736572265625
1779786621642633500,0.675633544921875,-0.7228851318359375,-0.7086334228515625,-0.0719146728515625
1779786621652714500,0.685714599609375,-0.6631927490234375,-0.706756591796875,-0.10150146484375
1779786621662796500,0.695796630859375,-0.59637451171875,-0.703704833984375,-0.0960540771484375
1779786621672878600,0.705878662109375,-0.5576629638671875,-0.695098876953125,-0.1016845703125
1779786621682959600,0.715959716796875,-0.5404052734375,-0.703369140625,-0.11285400390625
1779786621693041700,0.726041748046875,-0.5599365234375,-0.7289276123046875,-0.111480712890625
1779786621703123500,0.73612353515625,-0.6155548095703125,-0.7708587646484375,-0.0910491943359375
1779786621713204700,0.746204833984375,-0.6603240966796875,-0.7965240478515625,-0.0520477294921875
1779786621723286500,0.75628662109375,-0.668487548828125,-0.7764434814453125,-0.0328216552734375
1779786621733368300,0.766368408203125,-0.6444854736328125,-0.7436065673828125,-0.0389862060546875
1779786621743449300,0.776449462890625,-0.6030120849609375,-0.736114501953125,-0.05926513671875
1779786621753531400,0.786531494140625,-0.57867431640625,-0.747467041015625,-0.0699615478515625
1779786621763612400,0.7966123046875,-0.584381103515625,-0.7674713134765625,-0.048675537109375
1779786621773694500,0.806694580078125,-0.5917510986328125,-0.768402099609375,-0.0399169921875
1779786621783776500,0.816776611328125,-0.6036834716796875,-0.7574920654296875,-0.0482330322265625
1779786621793857500,0.826857421875,-0.614044189453125,-0.75311279296875,-0.062835693359375
1779786621803939600,0.836939697265625,-0.6290435791015625,-0.748382568359375,-0.06988525390625
1779786621814021600,0.847021728515625,-0.6381072998046875,-0.749359130859375,-0.0769195556640625
1779786621824102400,0.857102294921875,-0.6336517333984375,-0.74609375,-0.0764312744140625
1779786621834184400,0.867184326171875,-0.6334075927734375,-0.7390289306640625,-0.0772552490234375
1779786621844267000,0.87726708984375,-0.63958740234375,-0.7322235107421875,-0.08209228515625
1779786621854348300,0.887348388671875,-0.645050048828125,-0.710906982421875,-0.0880584716796875
1779786621864430000,0.89743017578125,-0.6508331298828125,-0.727874755859375,-0.0790557861328125
1779786621874512100,0.90751220703125,-0.67462158203125,-0.74029541015625,-0.06231689453125
1779786621884593200,0.91759326171875,-0.6915435791015625,-0.753204345703125,-0.0476531982421875
1779786621894675200,0.92767529296875,-0.692596435546875,-0.7744140625,-0.0377960205078125
1779786621904757000,0.937757080078125,-0.6941375732421875,-0.7904815673828125,-0.0308685302734375
1779786621914838000,0.947838134765625,-0.6951446533203125,-0.793060302734375,-0.0343017578125
1779786621924920000,0.957920166015625,-0.6840057373046875,-0.7801971435546875,-0.0503082275390625
1779786621935002000,0.968002197265625,-0.6585540771484375,-0.7696380615234375,-0.072357177734375
1779786621945083100,0.978083251953125,-0.6348114013671875,-0.764190673828125,-0.0869140625
1779786621955165200,0.988165283203125,-0.6165313720703125,-0.7685699462890625,-0.095855712890625
1779786621965247200,0.998247314453125,-0.5962982177734375,-0.7816925048828125,-0.096099853515625
1779786621975328300,1.008328369140625,-0.5878753662109375,-0.7977447509765625,-0.0944976806640625
1779786621985410300,1.018410400390625,-0.579864501953125,-0.8058013916015625,-0.089691162109375
1779786621995492000,1.0284921875,-0.56005859375,-0.8018035888671875,-0.0873565673828125
1779786622005573000,1.038572998046875,-0.536529541015625,-0.7923583984375,-0.0933074951171875
1779786622015655200,1.0486552734375,-0.522430419921875,-0.7900238037109375,-0.0948333740234375
1779786622025737000,1.058737060546875,-0.5279083251953125,-0.79888916015625,-0.087066650390625
1779786622035818000,1.06881787109375,-0.5484619140625,-0.8170166015625,-0.069671630859375
1779786622045900000,1.078900146484375,-0.5697174072265625,-0.8348236083984375,-0.05364990234375
1779786622055981000,1.08898095703125,-0.5766754150390625,-0.8353424072265625,-0.05426025390625
1779786622066063000,1.09906298828125,-0.571441650390625,-0.8128814697265625,-0.06060791015625
1779786622076145200,1.109145263671875,-0.5511932373046875,-0.786529541015625,-0.070892333984375
1779786622086226200,1.11922607421875,-0.5447845458984375,-0.7729339599609375,-0.0756683349609375
1779786622096308200,1.12930810546875,-0.559722900390625,-0.76947021484375,-0.0684661865234375
1779786622106390300,1.139390380859375,-0.5917510986328125,-0.7716522216796875,-0.0589752197265625
1779786622116471000,1.149470947265625,-0.624908447265625,-0.774505615234375,-0.051971435546875
1779786622126553000,1.159552978515625,-0.642333984375,-0.7732696533203125,-0.0512847900390625
1779786622136635100,1.16963525390625,-0.648406982421875,-0.76788330078125,-0.055877685546875
1779786622146716200,1.179716064453125,-0.65533447265625,-0.767425537109375,-0.053802490234375
1779786622156798200,1.189798095703125,-0.668914794921875,-0.7782440185546875,-0.0461273193359375
1779786622166880300,1.19988037109375,-0.675323486328125,-0.784454345703125,-0.03497314453125
1779786622176961300,1.209961181640625,-0.6692657470703125,-0.7845916748046875,-0.0258941650390625
1779786622187043000,1.22004296875,-0.654144287109375,-0.786163330078125,-0.0228271484375
1779786622197125000,1.230125,-0.6046600341796875,-0.80224609375,-0.031005859375
1779786622207206100,1.2402060546875,-0.5815582275390625,-0.8115234375,-0.0019378662109375
1779786622217288000,1.250287841796875,-0.5776214599609375,-0.8257293701171875,-0.0046234130859375
1779786622227370000,1.260369873046875,-0.6018218994140625,-0.8473968505859375,-0.0006103515625
1779786622237451000,1.270450927734375,-0.6334075927734375,-0.8490447998046875,-0.0121307373046875
1779786622247533000,1.280532958984375,-0.6395263671875,-0.8306427001953125,-0.0255584716796875
1779786622257615000,1.290614990234375,-0.6087799072265625,-0.7888946533203125,-0.0409698486328125
1779786622267696000,1.300696044921875,-0.5658721923828125,-0.7740631103515625,-0.0543365478515625
1779786622277778200,1.310778076171875,-0.528289794921875,-0.7953338623046875,-0.05169677734375
1779786622287859200,1.320859130859375,-0.5058441162109375,-0.8037261962890625,-0.0389556884765625
1779786622297941200,1.330941162109375,-0.517852783203125,-0.80731201171875,-0.040740966796875
1779786622308023300,1.341023193359375,-0.558807373046875,-0.8157958984375,-0.0297393798828125
1779786622318104000,1.35110400390625,-0.5981903076171875,-0.8224945068359375,-0.0190277099609375
1779786622328186000,1.36118603515625,-0.6358489990234375,-0.8166046142578125,-0.0176849365234375
1779786622338268200,1.37126806640625,-0.658660888671875,-0.797576904296875,-0.0189666748046875
1779786622348349200,1.38134912109375,-0.6595458984375,-0.781005859375,-0.0366668701171875
1779786622358431000,1.391430908203125,-0.6534423828125,-0.767120361328125,-0.05218505859375
1779786622368513000,1.401512939453125,-0.639129638671875,-0.7522125244140625,-0.06591796875
1779786622378594000,1.411593994140625,-0.6453704833984375,-0.7509918212890625,-0.069610595703125
1779786622388676000,1.421676025390625,-0.67315673828125,-0.764617919921875,-0.0780029296875
1779786622398758100,1.431758056640625,-0.7285614013671875,-0.7735748291015625,-0.0772247314453125
1779786622408839200,1.441839111328125,-0.78753662109375,-0.8013458251953125,-0.0606842041015625
1779786622418921200,1.451921142578125,-0.7687225341796875,-0.812408447265625,-0.05419921875
1779786622429003300,1.462003173828125,-0.6467132568359375,-0.8066864013671875,-0.0543212890625
1779786622439084000,1.472083984375,-0.600250244140625,-0.8146209716796875,-0.0988006591796875
1779786622449166000,1.482166015625,-0.5767364501953125,-0.8155517578125,-0.043487548828125
1779786622459248000,1.492248046875,-0.547821044921875,-0.8582916259765625,-0.0515899658203125
1779786622469329200,1.5023291015625,-0.516357421875,-0.879730224609375,-0.0489044189453125
1779786622479411200,1.5124111328125,-0.5446319580078125,-0.87445068359375,-0.02435302734375
1779786622489493200,1.5224931640625,-0.548370361328125,-0.8414764404296875,-0.0573883056640625
1779786622499574300,1.53257421875,-0.5422210693359375,-0.768402099609375,-0.1055908203125
1779786622509656000,1.542656005859375,-0.5619964599609375,-0.7062225341796875,-0.1558074951171875
1779786622519738000,1.552738037109375,-0.5946044921875,-0.6558074951171875,-0.1805419921875
1779786622529819100,1.562819091796875,-0.62432861328125,-0.61285400390625,-0.2083282470703125
1779786622539901000,1.57290087890625,-0.628936767578125,-0.5374908447265625,-0.224395751953125
1779786622549982000,1.58298193359375,-0.613677978515625,-0.42218017578125,-0.26361083984375
1779786622560064000,1.59306396484375,-0.578643798828125,-0.36456298828125,-0.2569580078125
1779786622570146000,1.60314599609375,-0.5099639892578125,-0.36614990234375,-0.1974945068359375
1779786622580227000,1.61322705078125,-0.415252685546875,-0.3776397705078125,-0.1700592041015625
1779786622590309000,1.62330908203125,-0.3612060546875,-0.42236328125,-0.2042388916015625
1779786622600391200,1.63339111328125,-0.362274169921875,-0.47265625,-0.293212890625
1779786622610472200,1.64347216796875,-0.3827056884765625,-0.542266845703125,-0.2184600830078125
1779786622620554200,1.65355419921875,-0.453765869140625,-0.5904693603515625,-0.1606292724609375
1779786622630636300,1.66363623046875,-0.5670166015625,-0.5789337158203125,-0.243682861328125
1779786622640717000,1.673717041015625,-0.5842437744140625,-0.6038818359375,-0.2159423828125
1779786622650799000,1.683799072265625,-0.612457275390625,-0.643585205078125,-0.1369171142578125
1779786622660881200,1.693881103515625,-0.7283172607421875,-0.6834259033203125,-0.19635009765625
1779786622670962200,1.703962158203125,-0.7411651611328125,-0.6943511962890625,-0.2366790771484375
1779786622681044200,1.714044189453125,-0.7068023681640625,-0.6069183349609375,-0.2739715576171875
1779786622691126000,1.7241259765625,-0.7190093994140625,-0.4798126220703125,-0.25128173828125
1779786622701207000,1.73420703125,-0.7950439453125,-0.3927154541015625,-0.20947265625
1779786622711289000,1.7442890625,-0.98175048828125,-0.4340972900390625,-0.1458282470703125
1779786622721371100,1.75437109375,-1.1270751953125,-0.597625732421875,-0.14739990234375
1779786622731452200,1.7644521484375,-1.131317138671875,-0.5744476318359375,-0.1161651611328125
1779786622741534200,1.7745341796875,-1.1001434326171875,-0.5015411376953125,-0.0547943115234375
1779786622751616300,1.7846162109375,-1.0078887939453125,-0.5177154541015625,0.022247314453125
1779786622761697000,1.794697021484375,-0.9360198974609375,-0.55548095703125,-0.0130615234375
1779786622771779000,1.804779052734375,-0.87762451171875,-0.551513671875,-0.07659912109375
1779786622781860000,1.814860107421875,-0.9063720703125,-0.458953857421875,-0.1071014404296875
1779786622791942100,1.824942138671875,-0.905914306640625,-0.37835693359375,-0.10784912109375
1779786622802024200,1.835024169921875,-0.905609130859375,-0.3026123046875,-0.0860137939453125
1779786622812105200,1.845105224609375,-0.917510986328125,-0.272674560546875,-0.0589752197265625
1779786622822187300,1.855187255859375,-0.970794677734375,-0.3106842041015625,-0.0845794677734375
1779786622832269300,1.865269287109375,-0.9938812255859375,-0.3032379150390625,-0.3653564453125
1779786622842350300,1.875350341796875,-0.9946746826171875,-0.4681243896484375,-0.437957763671875
1779786622852431400,1.885431396484375,-1.0084381103515625,-0.6254119873046875,-0.21197509765625
1779786622862513400,1.895513427734375,-1.0419769287109375,-0.4092254638671875,-0.4857330322265625
1779786622872594400,1.905594482421875,-1.0777587890625,-0.3560638427734375,-0.6021728515625
1779786622882676500,1.915676513671875,-1.0820465087890625,-0.3074188232421875,-0.63720703125
1779786622892758300,1.92575830078125,-1.0526580810546875,-0.2924041748046875,-0.5625762939453125
1779786622902839300,1.93583935546875,-1.019775390625,-0.3085174560546875,-0.4451751708984375
1779786622912921300,1.94592138671875,-1.0443878173828125,-0.247467041015625,-0.4561920166015625
1779786622923003400,1.95600341796875,-1.1080322265625,-0.2198028564453125,-0.534210205078125
1779786622933084400,1.96608447265625,-1.1870269775390625,-0.237640380859375,-0.67315673828125
1779786622943166500,1.97616650390625,-1.3424835205078125,-0.31475830078125,-0.6870269775390625
1779786622953248500,1.98624853515625,-1.3345794677734375,-0.3654937744140625,-0.768280029296875
1779786622963329300,1.996329345703125,-1.1419677734375,-0.3741607666015625,-0.7515411376953125
1779786622973411300,2.006411376953125,-0.90838623046875,-0.363494873046875,-0.56182861328125
1779786622983493400,2.016493408203125,-0.7845306396484375,-0.3411102294921875,-0.3823699951171875
1779786622993574400,2.026574462890625,-0.8416900634765625,-0.2370758056640625,-0.5068359375
1779786623003656400,2.036656494140625,-0.96612548828125,-0.269744873046875,-0.6504058837890625
1779786623013738500,2.046738525390625,-1.088043212890625,-0.3094635009765625,-0.6639404296875
1779786623023819500,2.056819580078125,-1.1513824462890625,-0.2672119140625,-0.6121978759765625
1779786623033901600,2.066901611328125,-1.1650238037109375,-0.1923065185546875,-0.68994140625
1779786623043983400,2.0769833984375,-1.2053985595703125,-0.1500396728515625,-0.73052978515625
1779786623054064400,2.087064453125,-1.1239166259765625,-0.1667633056640625,-0.7507781982421875
1779786623064146200,2.097146240234375,-1.0180206298828125,-0.1573333740234375,-0.838531494140625
1779786623074228200,2.107228271484375,-0.8931884765625,-0.1145172119140625,-0.9036712646484375
1779786623084309200,2.117309326171875,-0.7614898681640625,-0.1680450439453125,-0.8033599853515625
1779786623094391300,2.127391357421875,-0.711669921875,-0.2227783203125,-0.629669189453125
1779786623104473300,2.137473388671875,-0.6959381103515625,-0.142486572265625,-0.5571136474609375
1779786623114554400,2.147554443359375,-0.595947265625,-0.0483245849609375,-0.7030029296875
1779786623124636400,2.157636474609375,-0.5785675048828125,-0.015228271484375,-0.76885986328125
1779786623134718500,2.167718505859375,-0.6377716064453125,-0.037445068359375,-0.7183074951171875
1779786623144799500,2.177799560546875,-0.6688079833984375,-0.009063720703125,-0.659820556640625
1779786623154881500,2.187881591796875,-0.67822265625,0.0170745849609375,-0.7025909423828125
1779786623164963600,2.197963623046875,-0.6936492919921875,0.016693115234375,-0.753814697265625
1779786623175044400,2.20804443359375,-0.6310272216796875,0.05029296875,-0.76904296875
1779786623185126400,2.21812646484375,-0.5009918212890625,0.070831298828125,-0.820098876953125
1779786623195208200,2.228208251953125,-0.3187255859375,-0.0047760009765625,-0.8992919921875
1779786623205289500,2.23828955078125,-0.214447021484375,-0.0252685546875,-0.8748626708984375
1779786623215371300,2.248371337890625,-0.21636962890625,0.03045654296875,-0.76031494140625
1779786623225453300,2.258453369140625,-0.310546875,0.0499420166015625,-0.6445159912109375
1779786623235534300,2.268534423828125,-0.410430908203125,0.0397796630859375,-0.6470184326171875
1779786623245616400,2.278616455078125,-0.5422210693359375,0.0251922607421875,-0.71142578125
1779786623255698400,2.288698486328125,-0.5825653076171875,0.06201171875,-0.816009521484375
1779786623265779500,2.298779541015625,-0.5185089111328125,0.0829925537109375,-0.8790283203125
1779786623275861500,2.308861572265625,-0.4005126953125,0.08172607421875,-0.8563232421875
1779786623285943300,2.318943359375,-0.2828521728515625,0.0519561767578125,-0.8308258056640625
1779786623296024300,2.3290244140625,-0.2243804931640625,0.049102783203125,-0.8487548828125
1779786623306106400,2.3391064453125,-0.23211669921875,0.0336151123046875,-0.89349365234375
1779786623316188400,2.3491884765625,-0.2599639892578125,0.0069122314453125,-0.970977783203125
1779786623326269400,2.35926953125,-0.279296875,0.0271759033203125,-1.02276611328125
1779786623336351500,2.3693515625,-0.2756805419921875,0.0328826904296875,-0.97308349609375
1779786623346433300,2.379433349609375,-0.2111358642578125,0.0446624755859375,-0.9091796875
1779786623356514600,2.3895146484375,-0.1353607177734375,0.0580596923828125,-0.8686370849609375
1779786623366596400,2.399596435546875,-0.089111328125,0.0507659912109375,-0.8524017333984375
1779786623376678400,2.409678466796875,-0.08941650390625,0.060760498046875,-0.870147705078125
1779786623386759200,2.41975927734375,-0.08984375,0.086151123046875,-0.8892822265625
1779786623396841200,2.42984130859375,-0.094085693359375,0.0895843505859375,-0.8725433349609375
1779786623406923300,2.43992333984375,-0.10186767578125,0.05670166015625,-0.882568359375
1779786623417004300,2.45000439453125,-0.0808868408203125,0.0552825927734375,-0.9054718017578125
1779786623427086300,2.46008642578125,-0.072113037109375,0.0497283935546875,-0.891632080078125
1779786623437168400,2.47016845703125,-0.0279083251953125,0.0559539794921875,-0.91180419921875
1779786623447249400,2.48024951171875,-0.0092620849609375,0.0427398681640625,-0.8723907470703125
1779786623457331500,2.49033154296875,0.02276611328125,0.0480194091796875,-0.84930419921875
1779786623467413500,2.50041357421875,0.0381927490234375,0.0789947509765625,-0.87945556640625
1779786623477494500,2.51049462890625,0.0290069580078125,0.09722900390625,-0.88726806640625
1779786623487576600,2.52057666015625,-0.0063934326171875,0.0700531005859375,-0.8618621826171875
1779786623497658400,2.530658447265625,-0.015045166015625,0.054412841796875,-0.8221435546875
1779786623507739400,2.540739501953125,0.0034027099609375,0.049285888671875,-0.792724609375
1779786623517821200,2.5508212890625,0.017333984375,0.0481414794921875,-0.7924957275390625
1779786623527903200,2.5609033203125,0.0391845703125,0.0540008544921875,-0.8262481689453125
1779786623537984300,2.570984375,0.0406646728515625,0.037750244140625,-0.8681793212890625
1779786623548066300,2.58106640625,0.0526580810546875,0.0246429443359375,-0.8877716064453125
1779786623558148400,2.5911484375,0.0559234619140625,0.0093994140625,-0.9004364013671875
1779786623568229400,2.6012294921875,0.05291748046875,0.0089874267578125,-0.8993072509765625
1779786623578311400,2.6113115234375,0.042572021484375,0.0260009765625,-0.9035491943359375
1779786623588393500,2.6213935546875,0.043487548828125,0.03717041015625,-0.9055023193359375
1779786623598474500,2.631474609375,0.0498809814453125,0.0349273681640625,-0.9256439208984375
1779786623608556300,2.641556396484375,0.042572021484375,0.0400390625,-0.949920654296875
1779786623618638300,2.651638427734375,0.035308837890625,0.0583038330078125,-0.952789306640625
1779786623628720400,2.661720458984375,0.02716064453125,0.078338623046875,-0.9423675537109375
1779786623638801400,2.671801513671875,0.0167694091796875,0.0822906494140625,-0.9176788330078125
1779786623648883500,2.681883544921875,0.0224609375,0.080596923828125,-0.9107513427734375
1779786623658965200,2.69196533203125,0.0417022705078125,0.0741119384765625,-0.923492431640625
1779786623669046500,2.702046630859375,0.0605926513671875,0.06134033203125,-0.95623779296875
1779786623679128300,2.71212841796875,0.0693359375,0.0460205078125,-1.01214599609375
1779786623689210400,2.72221044921875,0.0595855712890625,0.041351318359375,-1.062164306640625
1779786623699291400,2.73229150390625,0.0225372314453125,0.0479583740234375,-1.0866546630859375
1779786623709373400,2.74237353515625,-0.0076446533203125,0.0520172119140625,-1.071014404296875
1779786623719455500,2.75245556640625,-0.0424346923828125,0.0735321044921875,-1.0292816162109375
1779786623729536300,2.762536376953125,-0.0461578369140625,0.091094970703125,-0.996734619140625
1779786623739618300,2.772618408203125,-0.021026611328125,0.0876617431640625,-0.9806671142578125
1779786623749700400,2.782700439453125,0.0042724609375,0.045501708984375,-0.9948272705078125
1779786623759781400,2.792781494140625,0.0198822021484375,0.0089111328125,-1.0032501220703125
1779786623769863400,2.802863525390625,0.0229644775390625,0.0078582763671875,-1.0246734619140625
1779786623779945500,2.812945556640625,0.0164794921875,0.0095062255859375,-1.0452880859375
1779786623790026500,2.823026611328125,0.001312255859375,0.0143280029296875,-1.0456390380859375
1779786623800108500,2.833108642578125,-0.0151519775390625,0.0240020751953125,-1.0393218994140625
1779786623810190300,2.8431904296875,-0.0291748046875,0.0235595703125,-1.0209808349609375
1779786623820272400,2.8532724609375,-0.0318145751953125,0.027587890625,-0.996002197265625
1779786623830353400,2.863353515625,-0.0193023681640625,0.0270843505859375,-0.987335205078125
1779786623840435500,2.873435546875,0.013885498046875,0.0106353759765625,-0.9752960205078125
1779786623850517200,2.883517333984375,0.04345703125,0.0015106201171875,-0.9766387939453125
1779786623860598300,2.893598388671875,0.0521087646484375,0.006439208984375,-0.985137939453125
1779786623870680300,2.903680419921875,0.0526885986328125,0.0011749267578125,-0.999114990234375
1779786623880762400,2.913762451171875,0.0557403564453125,0.0004730224609375,-1.00823974609375
1779786623890843100,2.923843017578125,0.042633056640625,0.0086212158203125,-0.993499755859375
1779786623900925200,2.93392529296875,0.0349578857421875,0.0171356201171875,-0.9667510986328125
1779786623911007200,2.94400732421875,0.04193115234375,0.01409912109375,-0.959228515625
1779786623921088300,2.954088134765625,0.0455169677734375,0.0084686279296875,-0.9693756103515625
1779786623931170300,2.96417041015625,0.0328826904296875,0.0027008056640625,-0.9866943359375
1779786623941252400,2.97425244140625,0.019500732421875,0.0087432861328125,-1.0103607177734375
1779786623951334100,2.984334228515625,0.01226806640625,0.0157623291015625,-1.0195159912109375
1779786623961415200,2.994415283203125,0.00555419921875,0.025634765625,-1.0125274658203125
1779786623971497200,3.004497314453125,0.007049560546875,0.03033447265625,-0.983642578125
1779786623981579300,3.014579345703125,0.0195159912109375,0.03778076171875,-0.9624176025390625
1779786623991660300,3.024660400390625,0.02752685546875,0.0478363037109375,-0.95745849609375
1779786624001742300,3.034742431640625,0.0323028564453125,0.05206298828125,-0.9578094482421875
1779786624011824400,3.044824462890625,0.03814697265625,0.0545196533203125,-0.9810638427734375
1779786624021905200,3.0549052734375,0.054168701171875,0.0464630126953125,-0.9906463623046875
1779786624031987200,3.0649873046875,0.059478759765625,0.0479278564453125,-1.00396728515625
1779786624042069200,3.0750693359375,0.0621490478515625,0.045196533203125,-1.0082550048828125
1779786624052151300,3.0851513671875,0.0543975830078125,0.0453033447265625,-1.0020599365234375
1779786624062232300,3.095232421875,0.045623779296875,0.04486083984375,-0.9976043701171875
1779786624072314400,3.105314453125,0.0361175537109375,0.042236328125,-0.98992919921875
1779786624082396200,3.115396240234375,0.0310516357421875,0.039947509765625,-0.9861297607421875
1779786624092477400,3.1254775390625,0.017425537109375,0.0359649658203125,-0.9981231689453125
1779786624102559200,3.135559326171875,-0.0023040771484375,0.0359344482421875,-1.009521484375
1779786624112641300,3.145641357421875,-0.0207366943359375,0.0376739501953125,-1.01727294921875
1779786624122722000,3.15572216796875,-0.02593994140625,0.0330047607421875,-1.013458251953125
1779786624132804000,3.16580419921875,-0.026885986328125,0.0326080322265625,-1.0143585205078125
1779786624142886100,3.17588623046875,-0.024749755859375,0.03387451171875,-1.011962890625
1779786624152968200,3.18596826171875,-0.01947021484375,0.0388336181640625,-1.01416015625
1779786624163049200,3.19604931640625,-0.02142333984375,0.0477142333984375,-1.0060577392578125
1779786624173131300,3.20613134765625,-0.018524169921875,0.0606689453125,-0.9962310791015625
1779786624183213300,3.21621337890625,-0.010162353515625,0.0626068115234375,-0.9942779541015625
1779786624193294300,3.22629443359375,-0.0059051513671875,0.0517730712890625,-0.9947662353515625
1779786624203376400,3.23637646484375,0.00042724609375,0.044036865234375,-0.998321533203125
1779786624213458200,3.246458251953125,0.00457763671875,0.0323486328125,-1.004730224609375
1779786624223540200,3.256540283203125,0.0068359375,0.027862548828125,-1.005828857421875
1779786624233621200,3.266621337890625,0.0169525146484375,0.0275421142578125,-0.996917724609375
1779786624243703300,3.276703369140625,0.0305633544921875,0.030242919921875,-0.985015869140625
1779786624253785300,3.286785400390625,0.038055419921875,0.03070068359375,-0.979888916015625
1779786624263866000,3.2968662109375,0.0417938232421875,0.027099609375,-0.974884033203125
1779786624273948200,3.3069482421875,0.0399169921875,0.0214691162109375,-0.9729766845703125
1779786624284030200,3.3170302734375,0.0333404541015625,0.0178070068359375,-0.9683990478515625
1779786624294112300,3.3271123046875,0.033905029296875,0.016143798828125,-0.9632415771484375
1779786624304193300,3.337193359375,0.04315185546875,0.00701904296875,-0.962646484375
1779786624314275300,3.347275390625,0.055023193359375,0.005462646484375,-0.9623565673828125
1779786624324357400,3.357357421875,0.0528717041015625,0.0074462890625,-0.9544219970703125
1779786624334438400,3.3674384765625,0.044952392578125,0.0136260986328125,-0.9521331787109375
1779786624344520400,3.3775205078125,0.033782958984375,0.015228271484375,-0.9528045654296875
1779786624354602200,3.387602294921875,0.0328216552734375,0.0045928955078125,-0.952239990234375
1779786624364683300,3.397683349609375,0.0359649658203125,-0.013214111328125,-0.9563751220703125
1779786624374765000,3.40776513671875,0.0338592529296875,-0.01666259765625,-0.9580078125
1779786624384847000,3.41784716796875,0.035400390625,-0.0128326416015625,-0.9723968505859375
1779786624394929200,3.42792919921875,0.03521728515625,-0.0051727294921875,-0.9838714599609375
1779786624405010200,3.43801025390625,0.0432891845703125,0.0020599365234375,-0.9971923828125
1779786624415092200,3.44809228515625,0.053253173828125,0.007568359375,-0.999114990234375
1779786624425174300,3.45817431640625,0.0667724609375,0.0155181884765625,-0.991424560546875
1779786624435256300,3.46825634765625,0.07525634765625,0.0184783935546875,-0.99395751953125
1779786624445337300,3.47833740234375,0.077972412109375,0.0136260986328125,-1.00286865234375
1779786624455419400,3.48841943359375,0.0750579833984375,0.009796142578125,-1.013763427734375
1779786624465501200,3.498501220703125,0.064056396484375,0.0088348388671875,-1.02099609375
1779786624475582500,3.50858251953125,0.062225341796875,0.0007781982421875,-1.0271453857421875
1779786624485664300,3.518664306640625,0.054595947265625,0.0007781982421875,-1.0219268798828125
1779786624495746300,3.528746337890625,0.0412750244140625,0.0068817138671875,-1.0084686279296875
1779786624505828000,3.538828125,0.03759765625,0.0081939697265625,-1.0162811279296875
1779786624515909000,3.5489091796875,0.0352020263671875,0.01458740234375,-1.0302276611328125
1779786624525991200,3.5589912109375,0.0316162109375,0.0159759521484375,-1.0420379638671875
1779786624536073200,3.5690732421875,0.0164642333984375,0.0168914794921875,-1.0331878662109375
1779786624546154200,3.579154296875,-0.0154266357421875,0.013824462890625,-1.040069580078125
1779786624556236300,3.589236328125,-0.0378570556640625,0.0036773681640625,-1.0543060302734375
1779786624566318300,3.599318359375,-0.01776123046875,-0.0086822509765625,-1.0436859130859375
1779786624576400400,3.609400390625,0.0225677490234375,-0.0290985107421875,-1.0135040283203125
1779786624586481400,3.6194814453125,0.03704833984375,-0.0293121337890625,-0.9959259033203125
1779786624596563500,3.6295634765625,0.0267181396484375,-0.027252197265625,-1.0056304931640625
1779786624606645200,3.639645263671875,0.0110015869140625,-0.026519775390625,-1.0137176513671875
1779786624616726300,3.649726318359375,0.0022430419921875,-0.023590087890625,-1.020294189453125
1779786624626808000,3.65980810546875,0.00433349609375,-0.023712158203125,-1.012786865234375
1779786624636890000,3.66989013671875,0.0140838623046875,-0.0195159912109375,-1.0063018798828125
1779786624646972200,3.67997216796875,0.025054931640625,-0.0178070068359375,-0.9972381591796875
1779786624657053200,3.69005322265625,0.0269775390625,-0.0216522216796875,-0.9955902099609375
1779786624667135200,3.70013525390625,0.0149993896484375,-0.02392578125,-0.9979095458984375
1779786624677217300,3.71021728515625,-0.000030517578125,-0.0204925537109375,-0.9979705810546875
1779786624687299300,3.72029931640625,-0.0087432861328125,-0.0162811279296875,-0.9954833984375
1779786624697380400,3.73038037109375,-0.0067901611328125,-0.0169525146484375,-0.9933013916015625
1779786624707462400,3.74046240234375,-0.0016021728515625,-0.024566650390625,-0.9826507568359375
1779786624717544200,3.750544189453125,0.004974365234375,-0.0342864990234375,-0.9768829345703125
1779786624727625500,3.76062548828125,0.0082244873046875,-0.0491943359375,-0.973541259765625
1779786624737707300,3.770707275390625,0.002838134765625,-0.0650634765625,-0.9784088134765625
1779786624747789000,3.7807890625,-0.005096435546875,-0.0741729736328125,-0.98919677734375
1779786624757871000,3.79087109375,-0.0028076171875,-0.0679779052734375,-0.992523193359375
1779786624767952100,3.8009521484375,0.0014495849609375,-0.0569915771484375,-0.9830474853515625
1779786624778034200,3.8110341796875,0.003631591796875,-0.044708251953125,-0.970672607421875
1779786624788116200,3.8211162109375,0.011383056640625,-0.0371246337890625,-0.965606689453125
1779786624798198300,3.8311982421875,0.0223388671875,-0.0374603271484375,-0.9703369140625
1779786624808279300,3.841279296875,0.0256195068359375,-0.0458526611328125,-0.9753875732421875
1779786624818361300,3.851361328125,0.0258026123046875,-0.0494384765625,-0.9861602783203125
1779786624828443400,3.861443359375,0.0341339111328125,-0.053131103515625,-0.9931793212890625
1779786624838525200,3.871525146484375,0.04168701171875,-0.0547027587890625,-0.99456787109375
1779786624848606700,3.881606689453125,0.0448150634765625,-0.05767822265625,-0.99908447265625
1779786624858688800,3.891688720703125,0.0367889404296875,-0.0554046630859375,-1.0045013427734375
1779786624868770800,3.901770751953125,0.039276123046875,-0.0540618896484375,-1.0067596435546875
1779786624878851600,3.9118515625,0.055816650390625,-0.05645751953125,-1.0025787353515625
1779786624888933600,3.92193359375,0.0770416259765625,-0.0475921630859375,-0.9996337890625
1779786624899015700,3.932015625,0.093017578125,-0.0401611328125,-0.9998626708984375
1779786624909097700,3.94209765625,0.098907470703125,-0.0382232666015625,-1.0140228271484375
1779786624919178800,3.9521787109375,0.08355712890625,-0.0340423583984375,-1.0327911376953125
1779786624929260800,3.9622607421875,0.059051513671875,-0.026580810546875,-1.0380096435546875
1779786624939342800,3.9723427734375,0.0497589111328125,-0.025360107421875,-1.0328521728515625
1779786624949424600,3.982424560546875,0.051483154296875,-0.02392578125,-1.0283966064453125
1779786624959506000,3.992505859375,0.0489959716796875,-0.0230255126953125,-1.0218658447265625
1779786624969587700,4.002587646484375,0.032623291015625,-0.0195770263671875,-1.0165557861328125
1779786624979669800,4.012669677734375,0.0163116455078125,-0.011322021484375,-1.0247039794921875
1779786624989751800,4.022751708984375,0.0032196044921875,0.0041656494140625,-1.02984619140625
1779786624999832800,4.032832763671875,0.0061187744140625,0.011871337890625,-1.01739501953125
1779786625009915000,4.042914794921875,0.02642822265625,0.0165557861328125,-1.0086822509765625
1779786625019996700,4.05299658203125,0.0460052490234375,0.0131378173828125,-1.005615234375
1779786625030078700,4.06307861328125,0.06317138671875,0.00067138671875,-1.011474609375
1779786625040159700,4.07315966796875,0.065521240234375,-0.0068817138671875,-1.01690673828125
1779786625050241800,4.08324169921875,0.0560150146484375,-0.006744384765625,-1.016387939453125
1779786625060323800,4.09332373046875,0.0459442138671875,-0.0090484619140625,-1.01495361328125
1779786625070405600,4.103405517578125,0.046417236328125,-0.013519287109375,-1.0110626220703125
1779786625080486700,4.113486572265625,0.0525665283203125,-0.017669677734375,-1.0038909912109375
1779786625090568700,4.123568603515625,0.0596466064453125,-0.0256805419921875,-0.99932861328125
1779786625100650800,4.133650634765625,0.057861328125,-0.0274505615234375,-0.993194580078125
1779786625110732800,4.14373291015625,0.063568115234375,-0.024749755859375,-0.9961090087890625
1779786625120813800,4.153813720703125,0.0681304931640625,-0.0194549560546875,-0.9887542724609375
1779786625130896000,4.163895751953125,0.0614776611328125,-0.009796142578125,-0.9753570556640625
1779786625140978000,4.17397802734375,0.05584716796875,-0.0028839111328125,-0.9627685546875
1779786625151060000,4.18406005859375,0.0465240478515625,-0.0112457275390625,-0.964599609375
1779786625161140700,4.194140625,0.0326080322265625,-0.01287841796875,-0.965118408203125
1779786625171222800,4.204222900390625,0.024871826171875,-0.0148162841796875,-0.9577789306640625
1779786625181304600,4.2143046875,0.0214385986328125,-0.0099334716796875,-0.9665679931640625
1779786625191386600,4.22438671875,0.0126800537109375,-0.0046234130859375,-0.983673095703125
1779786625201467600,4.234467529296875,0.0119171142578125,-0.0031890869140625,-0.9922943115234375
1779786625211549700,4.2445498046875,0.011932373046875,0.0004119873046875,-0.993408203125
1779786625221631700,4.2546318359375,0.009490966796875,0.002655029296875,-0.982025146484375
1779786625231713800,4.2647138671875,0.0109100341796875,0.0070953369140625,-0.9639739990234375
1779786625241794800,4.274794921875,0.00531005859375,-0.0008087158203125,-0.956939697265625
1779786625251876900,4.284876953125,-0.0089263916015625,-0.009124755859375,-0.9673919677734375
1779786625261959000,4.294958984375,-0.01177978515625,-0.01641845703125,-0.9830780029296875
1779786625272041000,4.305041015625,0.0001373291015625,-0.008514404296875,-0.9949798583984375
1779786625282121700,4.315121826171875,0.00921630859375,-0.00079345703125,-0.9971466064453125
1779786625292203800,4.325203857421875,0.009552001953125,0.010406494140625,-0.984222412109375
1779786625302285600,4.33528564453125,0.010833740234375,0.0209503173828125,-0.9719085693359375
1779786625312367600,4.34536767578125,0.0151214599609375,0.0224609375,-0.9728240966796875
1779786625322448600,4.35544873046875,0.0207672119140625,0.0113677978515625,-0.9831695556640625
1779786625332530700,4.36553076171875,0.0292205810546875,0.002197265625,-0.9902801513671875
1779786625342612700,4.37561279296875,0.03863525390625,-0.000762939453125,-0.992919921875
1779786625352694800,4.38569482421875,0.041107177734375,0.0048828125,-0.9902191162109375
1779786625362775800,4.39577587890625,0.03839111328125,0.0115966796875,-0.9901885986328125
1779786625372857900,4.40585791015625,0.03521728515625,0.0200958251953125,-0.9844970703125
1779786625382940000,4.41593994140625,0.0360260009765625,0.0204010009765625,-0.9866180419921875
1779786625393021700,4.426021728515625,0.0289764404296875,0.0126190185546875,-0.9925994873046875
1779786625403103000,4.43610302734375,0.014862060546875,0.0049285888671875,-1.001678466796875
1779786625413184800,4.446184814453125,0.0054473876953125,-0.004669189453125,-1.0132293701171875
1779786625423266600,4.4562666015625,-0.006256103515625,-0.006072998046875,-1.0024261474609375
1779786625433348600,4.4663486328125,-0.01031494140625,0.001800537109375,-0.9924468994140625
1779786625443429600,4.4764296875,-0.017059326171875,0.0080108642578125,-0.9812774658203125
1779786625453511700,4.48651171875,-0.01898193359375,0.0101165771484375,-0.9725494384765625
1779786625463593700,4.49659375,-0.015411376953125,0.007476806640625,-0.9696807861328125
1779786625473675800,4.50667578125,-0.0098419189453125,0.002716064453125,-0.985748291015625
1779786625483757800,4.5167578125,-0.01324462890625,0.001678466796875,-0.996795654296875
1779786625493838800,4.5268388671875,-0.0238189697265625,0.0094757080078125,-1.009429931640625
1779786625503921000,4.5369208984375,-0.03240966796875,0.016387939453125,-1.0122833251953125
1779786625514002700,4.547002685546875,-0.03118896484375,0.02191162109375,-0.999176025390625
1779786625524084700,4.557084716796875,-0.024566650390625,0.025909423828125,-0.9856414794921875
1779786625534165800,4.567165771484375,-0.020843505859375,0.02392578125,-0.9737091064453125
1779786625544247800,4.577247802734375,-0.018463134765625,0.0184173583984375,-0.9709625244140625
1779786625554329900,4.587329833984375,-0.0107421875,0.005096435546875,-0.9775390625
1779786625564412000,4.597411865234375,0.0014801025390625,-0.01080322265625,-0.986602783203125
1779786625574492700,4.60749267578125,0.0088958740234375,-0.019195556640625,-0.994903564453125
1779786625584574700,4.61757470703125,0.0083160400390625,-0.0133209228515625,-0.994537353515625
1779786625594656800,4.62765673828125,0.0103912353515625,-0.0098419189453125,-0.992095947265625
1779786625604738800,4.63773876953125,0.0086822509765625,-0.0113677978515625,-0.987579345703125
1779786625614819800,4.64781982421875,-0.0037078857421875,-0.0162506103515625,-0.980255126953125
1779786625624902000,4.65790185546875,-0.019287109375,-0.0177001953125,-0.974945068359375
1779786625634983700,4.667983642578125,-0.032745361328125,-0.0223846435546875,-0.9785919189453125
1779786625645065700,4.678065673828125,-0.0519866943359375,-0.0290069580078125,-0.9879608154296875
1779786625655147800,4.688147705078125,-0.0638885498046875,-0.0257568359375,-0.9955596923828125
1779786625665228800,4.698228759765625,-0.06842041015625,-0.01519775390625,-1.004547119140625
1779786625675310800,4.708310791015625,-0.0693206787109375,-0.005828857421875,-1.011627197265625
1779786625685393000,4.718392822265625,-0.069793701171875,-0.00018310546875,-1.01348876953125
1779786625695475000,4.728474853515625,-0.0743408203125,0.0021820068359375,-1.009002685546875
1779786625705555700,4.7385556640625,-0.0772552490234375,0.000885009765625,-1.004180908203125
1779786625715637800,4.7486376953125,-0.08184814453125,-0.0030975341796875,-1.007843017578125
1779786625725719800,4.7587197265625,-0.0945587158203125,-0.0091705322265625,-1.00836181640625
1779786625735801600,4.768801513671875,-0.0996246337890625,-0.01568603515625,-1.014373779296875
1779786625745883600,4.778883544921875,-0.0957489013671875,-0.017578125,-1.0182952880859375
1779786625755964700,4.788964599609375,-0.0899505615234375,-0.0149078369140625,-1.0128021240234375
1779786625766046700,4.799046630859375,-0.0850982666015625,-0.0110931396484375,-1.0123443603515625
1779786625776128800,4.809128662109375,-0.08502197265625,-0.0070648193359375,-1.007598876953125
1779786625786210800,4.8192109375,-0.0828094482421875,-0.00390625,-1.0022430419921875
1779786625796291800,4.829291748046875,-0.0739898681640625,-0.003814697265625,-0.9992218017578125
1779786625806374000,4.839373779296875,-0.062286376953125,-0.002227783203125,-0.986724853515625
1779786625816456000,4.8494560546875,-0.0471954345703125,0.0068359375,-0.9756622314453125
1779786625826537700,4.859537841796875,-0.03436279296875,0.0087432861328125,-0.9813995361328125
1779786625836619800,4.869619873046875,-0.0288848876953125,0.0074005126953125,-0.98419189453125
1779786625846700800,4.87970068359375,-0.027740478515625,0.0091552734375,-0.9822845458984375
1779786625856782800,4.889782958984375,-0.037261962890625,0.0092315673828125,-0.9744110107421875
1779786625866865000,4.899864990234375,-0.0579376220703125,0.0027923583984375,-0.9720611572265625
1779786625876947000,4.909947021484375,-0.0767669677734375,-0.003997802734375,-0.974273681640625
1779786625887028000,4.920028076171875,-0.0925140380859375,-0.009368896484375,-0.9742889404296875
1779786625897110000,4.930110107421875,-0.1009979248046875,-0.0075531005859375,-0.977203369140625
1779786625907192000,4.940192138671875,-0.0978851318359375,-0.0007476806640625,-0.982147216796875
1779786625917274000,4.950274169921875,-0.087738037109375,0.0075225830078125,-0.9887237548828125
1779786625927356000,4.96035595703125,-0.0745086669921875,0.0146331787109375,-0.99200439453125
1779786625937437200,4.970437255859375,-0.06787109375,0.01776123046875,-0.9926605224609375
1779786625947519000,4.98051904296875,-0.069915771484375,0.0191802978515625,-0.9893951416015625
1779786625957601000,4.99060107421875,-0.069366455078125,0.01611328125,-0.992156982421875
1779786625967683000,5.00068310546875,-0.074981689453125,0.0114288330078125,-0.9819183349609375
1779786625977765000,5.01076513671875,-0.080169677734375,0.0059356689453125,-0.9835968017578125
1779786625987846000,5.020845947265625,-0.0787506103515625,0.0012664794921875,-0.9949951171875
1779786625997928000,5.030927978515625,-0.068115234375,0.0030517578125,-0.9995269775390625
1779786626008010000,5.041010009765625,-0.05328369140625,0.0100250244140625,-1.00201416015625
1779786626018092000,5.051092041015625,-0.045166015625,0.0160369873046875,-1.0051422119140625
1779786626028173000,5.061173095703125,-0.0451507568359375,0.0161285400390625,-1.005340576171875
1779786626038255000,5.071255126953125,-0.046478271484375,0.0154876708984375,-1.0077667236328125
1779786626048337000,5.0813369140625,-0.049102783203125,0.010833740234375,-1.0190582275390625
1779786626058419000,5.0914189453125,-0.049560546875,0.001800537109375,-1.0194854736328125
1779786626068501000,5.1015009765625,-0.0406646728515625,-0.0029449462890625,-1.0192108154296875
1779786626078582000,5.11158203125,-0.031982421875,-0.003570556640625,-1.0176544189453125
1779786626088664000,5.1216640625,-0.0265655517578125,0.00164794921875,-1.01055908203125
1779786626098746000,5.13174609375,-0.0256805419921875,0.0081024169921875,-1.0023040771484375
1779786626108828200,5.141828125,-0.027679443359375,0.014068603515625,-0.99822998046875
1779786626118910000,5.151909912109375,-0.0349884033203125,0.019439697265625,-0.9936370849609375
1779786626128991200,5.1619912109375,-0.04010009765625,0.0178985595703125,-0.9881591796875
1779786626139072800,5.17207275390625,-0.04534912109375,0.0120697021484375,-0.9849395751953125
1779786626149154800,5.18215478515625,-0.0558319091796875,0.0080718994140625,-0.9777069091796875
1779786626159236900,5.19223681640625,-0.0655975341796875,0.00762939453125,-0.979034423828125
1779786626169319000,5.20231884765625,-0.067596435546875,0.00341796875,-0.98626708984375
1779786626179400000,5.21239990234375,-0.05816650390625,0.004180908203125,-0.9988250732421875
1779786626189482000,5.22248193359375,-0.0487518310546875,0.0109710693359375,-0.9989013671875
1779786626199564000,5.23256396484375,-0.0527801513671875,0.012054443359375,-0.99664306640625
1779786626209646000,5.24264599609375,-0.0618133544921875,0.009613037109375,-1.0029296875
1779786626219728000,5.252727783203125,-0.0686187744140625,0.0097503662109375,-1.0058135986328125
1779786626229809200,5.26280908203125,-0.0729522705078125,0.01025390625,-0.998931884765625
1779786626239891000,5.272890869140625,-0.0685272216796875,0.018707275390625,-0.9909820556640625
1779786626249973000,5.282972900390625,-0.0608673095703125,0.020599365234375,-0.9872894287109375
1779786626260055000,5.293054931640625,-0.05889892578125,0.0218963623046875,-0.989715576171875
1779786626270137000,5.30313720703125,-0.062957763671875,0.0241851806640625,-1.0027313232421875
1779786626280218000,5.313218017578125,-0.0687103271484375,0.026397705078125,-1.007568359375
1779786626290300000,5.3232998046875,-0.0699310302734375,0.02685546875,-1.0106353759765625
1779786626300382000,5.3333818359375,-0.0741119384765625,0.022613525390625,-1.01336669921875
1779786626310464000,5.343464111328125,-0.0753936767578125,0.017486572265625,-1.0115966796875
1779786626320545800,5.3535458984375,-0.0673980712890625,0.01336669921875,-1.0071258544921875
1779786626330627000,5.363626953125,-0.0570526123046875,0.016815185546875,-0.9986572265625
1779786626340708900,5.373708984375,-0.0533294677734375,0.0201568603515625,-0.99627685546875
1779786626350791000,5.383791015625,-0.051849365234375,0.0229949951171875,-1.000091552734375
1779786626360873000,5.393873046875,-0.0497589111328125,0.0259552001953125,-0.99993896484375
1779786626370955000,5.403955078125,-0.040679931640625,0.0273284912109375,-1.00128173828125
1779786626381036000,5.4140361328125,-0.0348663330078125,0.0264434814453125,-0.9999847412109375
1779786626391118000,5.4241181640625,-0.030364990234375,0.0203857421875,-1.001190185546875
1779786626401200000,5.4342001953125,-0.0271759033203125,0.017120361328125,-0.9987335205078125
1779786626411282200,5.4442822265625,-0.0244140625,0.018341064453125,-0.9898529052734375
1779786626421364000,5.454364013671875,-0.0136566162109375,0.0176849365234375,-0.983978271484375
1779786626431445200,5.4644453125,-0.0092315673828125,0.0168914794921875,-0.991119384765625
1779786626441527000,5.474527099609375,-0.01580810546875,0.018646240234375,-0.9986114501953125
1779786626451608800,5.48460888671875,-0.0211029052734375,0.020172119140625,-1.005126953125
1779786626461691000,5.49469091796875,-0.019989013671875,0.01971435546875,-1.0074615478515625
1779786626471773000,5.50477294921875,-0.0164337158203125,0.01324462890625,-1.0066070556640625
1779786626481854000,5.51485400390625,-0.0111083984375,0.0038909912109375,-1.007080078125
1779786626491936000,5.52493603515625,-0.00823974609375,-0.00439453125,-1.0022430419921875
1779786626502018000,5.53501806640625,-0.007568359375,-0.0105438232421875,-1.0003509521484375
1779786626512100000,5.54510009765625,-0.00775146484375,-0.0078582763671875,-1.0012359619140625
1779786626522182000,5.555181884765625,0.000335693359375,0.0014495849609375,-1.0013580322265625
1779786626532263200,5.56526318359375,0.0056610107421875,0.0141448974609375,-0.995513916015625
1779786626542345000,5.575344970703125,0.008331298828125,0.0243988037109375,-0.995361328125
1779786626552427000,5.585427001953125,0.0112152099609375,0.0292816162109375,-0.9961700439453125
1779786626562509000,5.595509033203125,0.0017852783203125,0.028076171875,-0.9973907470703125
1779786626572591000,5.605591064453125,-0.0078277587890625,0.02569580078125,-0.9972381591796875
1779786626582673200,5.615673095703125,-0.0151824951171875,0.0220489501953125,-0.9951934814453125
1779786626592754200,5.625754150390625,-0.01861572265625,0.02227783203125,-0.99688720703125
1779786626602836000,5.6358359375,-0.0158538818359375,0.02020263671875,-0.9964599609375
1779786626612918000,5.64591796875,-0.008880615234375,0.0247650146484375,-0.990447998046875
1779786626622999800,5.655999755859375,-0.0010223388671875,0.03118896484375,-0.9999542236328125
1779786626633081900,5.666081787109375,0.0011138916015625,0.03375244140625,-1.0055389404296875
1779786626643163000,5.676162841796875,-0.003692626953125,0.03662109375,-1.0038909912109375
1779786626653245000,5.686244873046875,-0.0089569091796875,0.0412139892578125,-1.0031890869140625
1779786626663327000,5.696326904296875,-0.004150390625,0.039764404296875,-1.0114288330078125
1779786626673409000,5.706408935546875,0.0196380615234375,0.051177978515625,-1.111297607421875
1779786626683491000,5.716490966796875,0.0047760009765625,-0.0103759765625,-1.01409912109375
1779786626693572000,5.726572021484375,-0.0077972412109375,-0.0167083740234375,-0.9243621826171875
1779786626703654100,5.736654052734375,0.0206146240234375,0.0051727294921875,-0.989349365234375
1779786626713736000,5.74673583984375,0.0438690185546875,0.006103515625,-1.0469818115234375
1779786626723818000,5.75681787109375,0.039642333984375,0.0003814697265625,-1.0055999755859375
1779786626733900000,5.766900146484375,0.0302886962890625,0.015167236328125,-0.989990234375
1779786626743982000,5.776982177734375,0.0292205810546875,0.02447509765625,-0.9816436767578125
1779786626754063000,5.78706298828125,0.02484130859375,0.0283203125,-0.976409912109375
1779786626764145000,5.797144775390625,0.017913818359375,0.0327301025390625,-0.983154296875
1779786626774227000,5.80722705078125,0.0094451904296875,0.0304718017578125,-0.9952392578125
1779786626784309000,5.81730908203125,0.004638671875,0.025604248046875,-1.0023956298828125
1779786626794391000,5.82739111328125,-0.001983642578125,0.0202484130859375,-0.9968109130859375
1779786626804472000,5.83747216796875,-0.013153076171875,0.01812744140625,-0.9874420166015625
1779786626814553900,5.847553955078125,-0.0243377685546875,0.0193328857421875,-0.987518310546875
1779786626824636000,5.857635986328125,-0.0274658203125,0.0229949951171875,-0.9942626953125
1779786626834718000,5.867718017578125,-0.023223876953125,0.02276611328125,-1.002777099609375
1779786626844800000,5.877800048828125,-0.0234832763671875,0.022613525390625,-1.009002685546875
1779786626854882000,5.887882080078125,-0.0276336669921875,0.0228729248046875,-1.0127716064453125
1779786626864963000,5.897963134765625,-0.0335235595703125,0.019805908203125,-1.0189208984375
1779786626875045000,5.908045166015625,-0.0337677001953125,0.015411376953125,-1.0157012939453125
1779786626885127200,5.918127197265625,-0.028411865234375,0.0122222900390625,-1.0085601806640625
1779786626895209000,5.928208984375,-0.0209808349609375,0.015289306640625,-0.9953765869140625
1779786626905291000,5.938291015625,-0.0110931396484375,0.01837158203125,-0.9896392822265625
1779786626915373000,5.948373046875,-0.00299072265625,0.0232696533203125,-0.985015869140625
1779786626925453800,5.958453857421875,0.0100555419921875,0.0272064208984375,-0.981842041015625
1779786626935535900,5.968535888671875,0.01800537109375,0.0288848876953125,-0.9813232421875
1779786626945618000,5.978617919921875,0.01544189453125,0.027313232421875,-0.985321044921875
1779786626955700000,5.988699951171875,0.0053863525390625,0.018646240234375,-0.9868316650390625
1779786626965782000,5.998781982421875,-0.00103759765625,0.0129852294921875,-0.9866485595703125
1779786626975863000,6.008863037109375,-0.0054931640625,0.0081024169921875,-0.9816131591796875
1779786626985945000,6.018945068359375,-0.0107574462890625,0.00592041015625,-0.9767608642578125
1779786626996027000,6.02902685546875,-0.0124969482421875,0.007537841796875,-0.977813720703125
1779786627006109000,6.03910888671875,-0.01153564453125,0.013671875,-0.981292724609375
1779786627016191000,6.04919091796875,-0.0228118896484375,0.0179901123046875,-0.9819793701171875
1779786627026273000,6.05927294921875,-0.037353515625,0.0236358642578125,-0.98614501953125
1779786627036355000,6.06935498046875,-0.040618896484375,0.0204315185546875,-0.991943359375
1779786627046436000,6.07943603515625,-0.0280914306640625,0.014251708984375,-0.9915618896484375
1779786627056518100,6.08951806640625,-0.01361083984375,0.0055999755859375,-0.990692138671875
1779786627066600200,6.09960009765625,0.0048675537109375,-0.0001068115234375,-0.9866180419921875
1779786627076682000,6.109681884765625,0.0313873291015625,-0.0045166015625,-0.9879608154296875
1779786627086764000,6.119763916015625,0.042999267578125,-0.0029296875,-0.99005126953125
1779786627096844800,6.1298447265625,0.041534423828125,0.0011138916015625,-0.9960479736328125
1779786627106926800,6.1399267578125,0.03887939453125,0.0062408447265625,-0.9998779296875
1779786627117009000,6.1500087890625,0.0431365966796875,0.019317626953125,-0.992401123046875
1779786627127091000,6.160091064453125,0.049285888671875,0.0228729248046875,-0.9773101806640625
1779786627137173000,6.170173095703125,0.04864501953125,0.0223236083984375,-0.9750518798828125
1779786627147255000,6.180255126953125,0.0390472412109375,0.022369384765625,-0.9866790771484375
1779786627157336800,6.1903369140625,0.04302978515625,0.036865234375,-1.098602294921875
1779786627167418000,6.200418212890625,-0.00634765625,-0.0169830322265625,-0.982818603515625
1779786627177500000,6.2105,-0.031585693359375,-0.0071258544921875,-0.925567626953125
1779786627187582000,6.22058203125,-0.014984130859375,0.0115203857421875,-0.9621734619140625
1779786627197664000,6.2306640625,0.00860595703125,0.0225677490234375,-1.02069091796875
1779786627207746000,6.24074609375,0.005828857421875,0.016754150390625,-0.9893798828125
1779786627217828000,6.250828125,-0.0032196044921875,0.018798828125,-0.979888916015625
1779786627227909000,6.2609091796875,-0.0025787353515625,0.016571044921875,-0.9837646484375
1779786627237991200,6.2709912109375,0.00457763671875,0.0096435546875,-0.9890899658203125
1779786627248073200,6.2810732421875,0.009613037109375,0.0032806396484375,-0.9930572509765625
1779786627258155000,6.291155029296875,0.014312744140625,0.001190185546875,-0.998626708984375
1779786627268237000,6.301237060546875,0.0204925537109375,0.0002593994140625,-0.999786376953125
1779786627278319000,6.311319091796875,0.0251617431640625,0.00006103515625,-0.995819091796875
1779786627288400000,6.32139990234375,0.0233154296875,0.0005035400390625,-0.9943084716796875
1779786627298482000,6.33148193359375,0.0288848876953125,0.0014801025390625,-0.9960784912109375
1779786627308564000,6.34156396484375,0.0347900390625,0.003143310546875,-0.9939117431640625
1779786627318646000,6.35164599609375,0.034576416015625,0.0078887939453125,-0.996856689453125
1779786627328728000,6.36172802734375,0.028839111328125,0.0068511962890625,-1.001861572265625
1779786627338809900,6.371809814453125,0.0175323486328125,0.004547119140625,-1.0007171630859375
1779786627348891100,6.38189111328125,0.009429931640625,0.0057220458984375,-1.0036773681640625
1779786627358973000,6.391972900390625,0.00543212890625,0.0029754638671875,-1.00250244140625
1779786627369055000,6.402054931640625,0.00299072265625,0.0031585693359375,-0.9972076416015625
1779786627379137000,6.412136962890625,0.005279541015625,0.0052642822265625,-1.00042724609375
1779786627389219000,6.422218994140625,0.0056915283203125,0.0110015869140625,-0.996673583984375
1779786627399301000,6.432301025390625,-0.001708984375,0.0169525146484375,-0.99884033203125
1779786627409383200,6.442383056640625,-0.010040283203125,0.0223846435546875,-1.0106201171875
1779786627419464200,6.452464111328125,-0.01983642578125,0.022918701171875,-1.0087890625
1779786627429546200,6.462546142578125,-0.0192718505859375,0.015380859375,-1.0157470703125
1779786627439628000,6.4726279296875,-0.0181121826171875,0.0066070556640625,-1.022552490234375
1779786627449709800,6.482709716796875,-0.0253753662109375,0.0035552978515625,-1.0168304443359375
1779786627459792000,6.4927919921875,-0.0334930419921875,0.0072021484375,-1.01287841796875
1779786627469874000,6.5028740234375,-0.029144287109375,0.0108489990234375,-1.0075531005859375
1779786627479956000,6.5129560546875,-0.0150909423828125,0.0138397216796875,-1.0011138916015625
1779786627490037000,6.523037109375,0.0048828125,0.0207672119140625,-0.99578857421875
1779786627500119000,6.533119140625,0.0236053466796875,0.0288543701171875,-0.9864959716796875
1779786627510201000,6.543201171875,0.0372161865234375,0.0345458984375,-0.9791412353515625
1779786627520283000,6.553282958984375,0.0462188720703125,0.0399627685546875,-0.9710235595703125
1779786627530365000,6.563364990234375,0.051513671875,0.0388641357421875,-0.96893310546875
1779786627540447000,6.573447021484375,0.0528717041015625,0.0315399169921875,-0.966583251953125
1779786627550528000,6.583528076171875,0.0523834228515625,0.0243988037109375,-0.9680938720703125
1779786627560610000,6.593610107421875,0.0530548095703125,0.0192108154296875,-0.962799072265625
1779786627570692000,6.603692138671875,0.0559844970703125,0.0171661376953125,-0.9583282470703125
1779786627580774100,6.613774169921875,0.0521087646484375,0.0195770263671875,-0.9575042724609375
1779786627590856200,6.623856201171875,0.0446624755859375,0.0215911865234375,-0.9608001708984375
1779786627600938000,6.63393798828125,0.040771484375,0.0193939208984375,-0.963653564453125
1779786627611020000,6.64402001953125,0.037322998046875,0.012664794921875,-0.960205078125
1779786627621100800,6.654100830078125,0.0316162109375,0.0037994384765625,-0.9663848876953125
1779786627631182800,6.664182861328125,0.0229949951171875,0.0047454833984375,-0.970794677734375
1779786627641265000,6.674264892578125,0.00592041015625,0.008758544921875,-0.9779205322265625
1779786627651347000,6.684346923828125,-0.011322021484375,0.0067291259765625,-0.98553466796875
1779786627661429000,6.694428955078125,-0.0215606689453125,0.0161285400390625,-0.9920196533203125
1779786627671511000,6.704510986328125,-0.0251007080078125,0.0233306884765625,-0.9959716796875
1779786627681592800,6.7145927734375,-0.0288543701171875,0.0260009765625,-0.985137939453125
1779786627691674000,6.724674072265625,-0.0333709716796875,0.0266571044921875,-0.982879638671875
1779786627701756000,6.734755859375,-0.0323486328125,0.0224456787109375,-0.9920501708984375
1779786627711838000,6.744837890625,-0.033447265625,0.0097198486328125,-1.0048370361328125
1779786627721920000,6.754919921875,-0.02935791015625,0.00048828125,-1.008148193359375
1779786627732002000,6.765001953125,-0.02178955078125,-0.001983642578125,-1.013214111328125
1779786627742084000,6.775083984375,-0.0142364501953125,-0.007781982421875,-1.02490234375
1779786627752166100,6.785166259765625,-0.0113677978515625,-0.0108795166015625,-1.02899169921875
1779786627762247200,6.7952470703125,-0.0103759765625,-0.0142669677734375,-1.029541015625
1779786627772329200,6.8053291015625,-0.0081787109375,-0.0171051025390625,-1.0379486083984375
1779786627782411000,6.815410888671875,-0.0078125,-0.0184783935546875,-1.0448455810546875
1779786627792493000,6.8254931640625,-0.004058837890625,-0.0208587646484375,-1.0324859619140625
1779786627802575000,6.8355751953125,-0.0003662109375,-0.00640869140625,-1.00439453125
1779786627812657200,6.8456572265625,0.00177001953125,0.016204833984375,-0.978668212890625
1779786627822739200,6.8557392578125,0.00567626953125,0.02935791015625,-0.975921630859375
1779786627832820000,6.865820068359375,-0.0017547607421875,0.028472900390625,-0.98419189453125
1779786627842902000,6.875902099609375,-0.0082550048828125,0.0200653076171875,-0.9998321533203125
1779786627852983800,6.88598388671875,-0.006134033203125,0.0080413818359375,-1.0264739990234375
1779786627863065600,6.896065673828125,0.00396728515625,0.005035400390625,-1.0414276123046875
1779786627873147600,6.906147705078125,-0.0021820068359375,0.0206146240234375,-1.0863494873046875
1779786627883229700,6.916229736328125,-0.000885009765625,-0.0347747802734375,-1.0013427734375
1779786627893311700,6.926311767578125,0.0300140380859375,-0.0298919677734375,-0.940155029296875
1779786627903393800,6.936393798828125,0.05731201171875,-0.009613037109375,-0.944427490234375
1779786627913474600,6.946474609375,0.0594329833984375,-0.001861572265625,-0.982818603515625
1779786627923556600,6.956556640625,0.0487518310546875,-0.016265869140625,-1.0137939453125
1779786627933638700,6.966638671875,0.0444183349609375,-0.0247955322265625,-1.029022216796875
1779786627943720700,6.976720703125,0.0344085693359375,-0.0207366943359375,-1.0315399169921875
1779786627953802500,6.986802490234375,0.0338592529296875,-0.0169525146484375,-1.0133514404296875
1779786627963884500,6.996884521484375,0.0286407470703125,-0.02520751953125,-0.9966583251953125
1779786627973966600,7.006966552734375,0.012969970703125,-0.0252685546875,-0.9671783447265625
1779786627984048600,7.017048583984375,-0.0009765625,-0.012908935546875,-0.963653564453125
1779786627994129700,7.027129638671875,0.001251220703125,-0.0064849853515625,-0.9881134033203125
1779786628004211700,7.037211669921875,0.005767822265625,-0.0091552734375,-1.0081024169921875
1779786628014293800,7.047293701171875,0.0125579833984375,-0.0087432861328125,-1.007904052734375
1779786628024375600,7.05737548828125,0.0203399658203125,-0.0152130126953125,-0.9971466064453125
1779786628034457600,7.06745751953125,0.026092529296875,-0.0206298828125,-0.9881439208984375
1779786628044539600,7.07753955078125,0.02459716796875,-0.015655517578125,-0.982818603515625
1779786628054621700,7.08762158203125,0.0145263671875,-0.0098724365234375,-0.990020751953125
1779786628064703700,7.097703857421875,0.0054473876953125,-0.0034942626953125,-1.005157470703125
1779786628074784500,7.107784423828125,0.001495361328125,0.0100250244140625,-1.006317138671875
1779786628084866600,7.117866455078125,0.0011138916015625,0.013336181640625,-1.0067138671875
1779786628094948600,7.127948486328125,0.0015869140625,0.0140228271484375,-0.999755859375
1779786628105030700,7.13803076171875,-0.0074920654296875,0.0102081298828125,-0.9693145751953125
1779786628115112400,7.148112548828125,-0.01165771484375,0.0041046142578125,-0.93389892578125
1779786628125194500,7.158194580078125,0.010101318359375,0.0077667236328125,-0.940765380859375
1779786628135276500,7.168276611328125,0.0326080322265625,0.01007080078125,-0.95745849609375
1779786628145358600,7.178358642578125,0.033233642578125,0.013427734375,-0.96380615234375
1779786628155439600,7.188439697265625,0.0374755859375,0.014495849609375,-0.97357177734375
1779786628165521700,7.198521728515625,0.0424346923828125,0.0125274658203125,-0.995269775390625
1779786628175603700,7.208603759765625,0.03533935546875,0.0047760009765625,-1.0250396728515625
1779786628185685800,7.218685791015625,0.01983642578125,-0.009521484375,-1.03094482421875
1779786628195767600,7.228767578125,0.0039520263671875,-0.014862060546875,-1.00848388671875
1779786628205849600,7.238849609375,-0.003326416015625,-0.005096435546875,-0.9792327880859375
1779786628215931600,7.248931640625,-0.003387451171875,0.005584716796875,-0.96600341796875
1779786628226013700,7.259013671875,-0.00299072265625,0.0101318359375,-0.9563751220703125
1779786628236094700,7.2690947265625,0.0045623779296875,0.0113372802734375,-0.958038330078125
1779786628246176800,7.2791767578125,0.007568359375,0.0135040283203125,-0.9745330810546875
1779786628256258800,7.2892587890625,-0.0004119873046875,0.0196685791015625,-0.98394775390625
1779786628266340600,7.299340576171875,-0.0115966796875,0.0179901123046875,-0.9850006103515625
1779786628276422700,7.309422607421875,-0.019500732421875,0.0089569091796875,-0.9903564453125
1779786628286504700,7.319504638671875,-0.016693115234375,0.0008544921875,-0.9964141845703125
1779786628296586800,7.329586669921875,-0.0163421630859375,-0.0058441162109375,-0.995025634765625
1779786628306668500,7.33966845703125,-0.0182342529296875,-0.00665283203125,-0.9873809814453125
1779786628316750600,7.34975048828125,-0.0207061767578125,-0.0010833740234375,-0.985321044921875
1779786628326831600,7.35983154296875,-0.015380859375,0.0022430419921875,-0.9956207275390625
1779786628336913700,7.36991357421875,-0.0053253173828125,0.0037078857421875,-1.0107421875
1779786628346995700,7.37999560546875,0.0018310546875,0.00335693359375,-1.012451171875
1779786628357077500,7.390077392578125,0.0066680908203125,0.00347900390625,-1.017242431640625
1779786628367159600,7.40015966796875,0.0021820068359375,-0.0085906982421875,-1.0133056640625
1779786628377241600,7.41024169921875,-0.0099639892578125,-0.01751708984375,-1.00701904296875
1779786628387323600,7.42032373046875,-0.014801025390625,-0.017669677734375,-1.0181732177734375
1779786628397405700,7.43040576171875,-0.015594482421875,-0.017791748046875,-1.02386474609375
1779786628407487700,7.44048779296875,-0.010009765625,-0.011016845703125,-1.0208892822265625
1779786628417568800,7.45056884765625,-0.0032196044921875,-0.004486083984375,-1.00958251953125
1779786628427650800,7.46065087890625,-0.00244140625,-0.00213623046875,-0.993804931640625
1779786628437732600,7.470732666015625,-0.0006103515625,-0.0018768310546875,-0.9930877685546875
1779786628447814700,7.480814697265625,0.00054931640625,-0.007080078125,-0.9959716796875
1779786628457896700,7.490896728515625,-0.008026123046875,-0.01385498046875,-1.0078887939453125
1779786628467978800,7.500978759765625,-0.018585205078125,-0.019561767578125,-1.0094146728515625
1779786628478060800,7.511060791015625,-0.01068115234375,-0.016754150390625,-1.0039825439453125
1779786628488142800,7.521142822265625,0.000701904296875,-0.010162353515625,-1.0018310546875
1779786628498224600,7.531224609375,0.009307861328125,-0.0111846923828125,-0.996551513671875
1779786628508305700,7.5413056640625,0.00408935546875,-0.0096282958984375,-0.993896484375
1779786628518387500,7.551387451171875,-0.006805419921875,-0.006927490234375,-0.976898193359375
1779786628528469500,7.561469482421875,-0.0114593505859375,-0.0024566650390625,-0.9770050048828125
1779786628538551600,7.571551513671875,-0.01043701171875,-0.0041351318359375,-0.982177734375
1779786628548633600,7.581633544921875,-0.003814697265625,-0.0107421875,-0.9833984375
1779786628558715600,7.591715576171875,0.000823974609375,-0.0164947509765625,-0.9786529541015625
1779786628568797700,7.601797607421875,-0.000335693359375,-0.015777587890625,-0.9774932861328125
1779786628578879500,7.61187939453125,-0.000701904296875,-0.012054443359375,-0.985260009765625
1779786628588961500,7.62196142578125,-0.0023193359375,-0.010101318359375,-0.9884490966796875
1779786628599043600,7.632043701171875,-0.007781982421875,-0.005523681640625,-0.992095947265625
1779786628609124600,7.64212451171875,-0.010986328125,-0.00689697265625,-0.9896240234375
1779786628619206700,7.65220654296875,-0.00927734375,-0.0082550048828125,-0.976165771484375
1779786628629288700,7.662288818359375,-0.003326416015625,-0.0049285888671875,-0.9694061279296875
1779786628639370800,7.672370849609375,-0.000732421875,-0.0036163330078125,-0.9724578857421875
1779786628649452800,7.682452880859375,-0.003021240234375,-0.004730224609375,-0.9835357666015625
1779786628659534600,7.69253466796875,-0.004974365234375,-0.0006866455078125,-0.9972076416015625
1779786628669616600,7.70261669921875,-0.006927490234375,0.0045166015625,-1.000823974609375
1779786628679698700,7.71269873046875,-0.002532958984375,0.006988525390625,-0.9999847412109375
1779786628689780700,7.72278076171875,0.0010528564453125,0.00616455078125,-0.9935302734375
1779786628699862800,7.73286279296875,-0.0033721923828125,0.007171630859375,-0.9828643798828125
1779786628709943600,7.742943603515625,-0.00738525390625,0.0097503662109375,-0.980072021484375
1779786628720025600,7.753025634765625,-0.0036773681640625,0.00848388671875,-0.982696533203125
1779786628730107600,7.763107666015625,0.0065460205078125,0.0054473876953125,-0.98504638671875
1779786628740189400,7.773189453125,0.0193634033203125,0.0014801025390625,-0.9952392578125
1779786628750271500,7.783271484375,0.03057861328125,0.003753662109375,-0.998291015625
1779786628760353500,7.793353515625,0.029937744140625,0.00762939453125,-0.9917755126953125
1779786628770435600,7.803435546875,0.0275421142578125,0.009735107421875,-0.9885101318359375
1779786628780517600,7.813517578125,0.0319671630859375,0.005096435546875,-0.9857177734375
1779786628790599700,7.823599609375,0.032684326171875,0.0027923583984375,-0.976287841796875
1779786628800681500,7.833681396484375,0.026824951171875,0.003204345703125,-0.9723052978515625
1779786628810762800,7.8437626953125,0.01214599609375,0.00311279296875,-0.9788055419921875
1779786628820844500,7.853844482421875,0.006011962890625,0.003265380859375,-0.99346923828125
1779786628830926600,7.863926513671875,0.0125885009765625,0.0074462890625,-0.9926300048828125
1779786628841008600,7.874008544921875,0.02252197265625,0.011688232421875,-0.9974517822265625
1779786628851090400,7.88409033203125,0.030242919921875,0.0152130126953125,-0.9864654541015625
1779786628861172500,7.89417236328125,0.02447509765625,0.00408935546875,-0.97900390625
1779786628871254500,7.904254638671875,0.01043701171875,-0.00811767578125,-0.98602294921875
1779786628881336600,7.914336669921875,-0.00537109375,-0.018768310546875,-0.992828369140625
1779786628891418400,7.92441845703125,-0.013763427734375,-0.025848388671875,-0.9926910400390625
1779786628901500400,7.93450048828125,-0.0154266357421875,-0.0258941650390625,-0.9900360107421875
1779786628911582500,7.94458251953125,-0.0096282958984375,-0.01934814453125,-0.9884796142578125
1779786628921663500,7.95466357421875,-0.002532958984375,-0.0118408203125,-0.98968505859375
1779786628931745500,7.96474560546875,-0.00048828125,-0.004669189453125,-0.992279052734375
1779786628941827600,7.97482763671875,-0.0091705322265625,-0.0060272216796875,-0.9935302734375
1779786628951909600,7.98490966796875,-0.0144195556640625,-0.0062103271484375,-0.993743896484375
1779786628961991400,7.994991455078125,-0.0100555419921875,-0.010711669921875,-0.9896697998046875
1779786628972073200,8.0050732421875,-0.0076141357421875,-0.0107269287109375,-0.986846923828125
1779786628982155300,8.0151552734375,-0.0039825439453125,-0.0096893310546875,-0.98931884765625
1779786628992237300,8.0252373046875,0.002716064453125,-0.0067901611328125,-0.9882354736328125
1779786629002319400,8.0353193359375,0.0034332275390625,-0.0057373046875,-0.98590087890625
1779786629012401400,8.0454013671875,0.0036163330078125,-0.0057525634765625,-0.9812774658203125
1779786629022483500,8.0554833984375,0.00555419921875,-0.00738525390625,-0.984771728515625
1779786629032565200,8.065565185546875,0.0029144287109375,-0.0128173828125,-0.9895172119140625
1779786629042646500,8.075646484375,-0.0032196044921875,-0.0205078125,-0.988250732421875
1779786629052728300,8.085728271484374,-0.0086822509765625,-0.02264404296875,-0.99017333984375
1779786629062810400,8.095810302734375,-0.0037994384765625,-0.021026611328125,-0.996795654296875
1779786629072892400,8.105892333984375,0.0039215087890625,-0.0143585205078125,-0.998504638671875
1779786629082974500,8.115974365234376,0.0057525634765625,-0.00543212890625,-0.9968719482421875
1779786629093056500,8.126056396484374,0.007476806640625,-0.001312255859375,-0.99951171875
1779786629103138600,8.136138671875,-0.0003509521484375,0.0007171630859375,-0.99798583984375
1779786629113220400,8.146220458984375,-0.01080322265625,-0.0024566650390625,-0.99078369140625
1779786629123302400,8.156302490234374,-0.0147552490234375,-0.0037384033203125,-0.9854583740234375
1779786629133384400,8.166384521484375,-0.0225372314453125,-0.00146484375,-0.987823486328125
1779786629143466500,8.176466552734375,-0.029388427734375,0.0012359619140625,-0.9967803955078125
1779786629153548500,8.186548583984376,-0.0310516357421875,0.0089263916015625,-1.009368896484375
1779786629163629600,8.196629638671874,-0.0298919677734375,0.0149688720703125,-1.0075225830078125
1779786629173711600,8.206711669921875,-0.0279541015625,0.0159149169921875,-1.001678466796875
1779786629183793700,8.216793701171875,-0.0274200439453125,0.0160064697265625,-1.0029144287109375
1779786629193875200,8.226875244140626,-0.0259857177734375,0.010894775390625,-1.00286865234375
1779786629203957200,8.236957275390624,-0.027618408203125,0.0087738037109375,-0.999359130859375
1779786629214039300,8.247039306640625,-0.0267791748046875,0.0066070556640625,-0.999359130859375
1779786629224121300,8.257121337890625,-0.0211029052734375,0.0045166015625,-0.9984130859375
1779786629234203400,8.267203369140624,-0.016632080078125,0.0094146728515625,-0.9984283447265625
1779786629244285400,8.277285400390625,-0.0074462890625,0.0161285400390625,-0.996490478515625
1779786629254367200,8.2873671875,0.005340576171875,0.0200653076171875,-0.995086669921875
1779786629264449300,8.29744921875,0.0157623291015625,0.019500732421875,-0.987335205078125
1779786629274531300,8.30753125,0.018463134765625,0.01458740234375,-0.9848785400390625
1779786629284613400,8.31761328125,0.0201568603515625,0.0125274658203125,-0.9788970947265625
1779786629294694400,8.3276943359375,0.0259246826171875,0.0092926025390625,-0.9693603515625
1779786629304776400,8.3377763671875,0.030853271484375,0.0082244873046875,-0.9654693603515625
1779786629314858500,8.3478583984375,0.0350494384765625,0.0129852294921875,-0.971282958984375
1779786629324940500,8.3579404296875,0.0376129150390625,0.016326904296875,-0.97747802734375
1779786629335022300,8.368022216796875,0.034088134765625,0.0209503173828125,-0.9850006103515625
1779786629345104400,8.3781044921875,0.0274810791015625,0.023681640625,-0.9871978759765625
1779786629355186400,8.3881865234375,0.0249786376953125,0.0212249755859375,-0.9821014404296875
1779786629365268500,8.3982685546875,0.026763916015625,0.0117645263671875,-0.98126220703125
1779786629375350500,8.4083505859375,0.025848388671875,0.0039825439453125,-0.981414794921875
1779786629385432600,8.4184326171875,0.0172576904296875,-0.009063720703125,-0.9844818115234375
1779786629395514400,8.428514404296875,0.0049896240234375,-0.0133056640625,-0.988800048828125
1779786629405596400,8.438596435546875,-0.0053863525390625,-0.0086517333984375,-0.992523193359375
1779786629415678500,8.448678466796874,-0.016632080078125,-0.00360107421875,-0.9951171875
1779786629425759200,8.45875927734375,-0.0180206298828125,-0.002105712890625,-0.991607666015625
1779786629435841300,8.46884130859375,-0.0128326416015625,-0.0013885498046875,-0.9861602783203125
1779786629445923300,8.47892333984375,-0.0096893310546875,-0.00006103515625,-0.983367919921875
1779786629456005400,8.48900537109375,-0.0093994140625,-0.0030975341796875,-0.9793243408203125
1779786629466087400,8.49908740234375,-0.0115203857421875,-0.0061492919921875,-0.98773193359375
1779786629476169500,8.50916943359375,-0.015869140625,-0.0040130615234375,-0.99786376953125
1779786629486251300,8.519251220703126,-0.0079193115234375,-0.005035400390625,-0.99664306640625
1779786629496333300,8.529333251953124,0.0055084228515625,-0.003387451171875,-0.9903717041015625
1779786629506415400,8.539415283203125,0.0185699462890625,-0.00360107421875,-0.9832763671875
1779786629516497400,8.549497314453125,0.0294189453125,-0.0102386474609375,-0.98260498046875
1779786629526579500,8.559579345703124,0.0379486083984375,-0.0166778564453125,-0.9746246337890625
1779786629536661500,8.56966162109375,0.040802001953125,-0.0193328857421875,-0.96978759765625
1779786629546743300,8.579743408203125,0.0448150634765625,-0.0217437744140625,-0.97186279296875
1779786629556825300,8.589825439453126,0.0441741943359375,-0.01953125,-0.978790283203125
1779786629566907400,8.599907470703124,0.044769287109375,-0.0109100341796875,-0.985443115234375
1779786629576988400,8.609988525390625,0.0408782958984375,0.0005035400390625,-0.9862518310546875
1779786629587070500,8.620070556640625,0.0357513427734375,0.00518798828125,-0.983489990234375
1779786629597152500,8.630152587890626,0.027496337890625,0.005218505859375,-0.98626708984375
1779786629607234600,8.640234619140625,0.025726318359375,0.003509521484375,-0.975799560546875
1779786629617316600,8.650316650390625,0.0116119384765625,-0.006591796875,-0.980560302734375
1779786629627398400,8.6603984375,-0.0082244873046875,-0.018341064453125,-0.9927978515625
1779786629637480400,8.67048046875,-0.0301055908203125,-0.02410888671875,-1.01202392578125
1779786629647562500,8.6805625,-0.0383148193359375,-0.0207366943359375,-1.017303466796875
1779786629657644500,8.69064453125,-0.0411529541015625,-0.01251220703125,-1.011322021484375
1779786629667726600,8.7007265625,-0.0316619873046875,-0.003997802734375,-1.0048370361328125
1779786629677808600,8.71080859375,-0.020721435546875,-0.0005645751953125,-1.0008697509765625
1779786629687890400,8.720890380859375,-0.0034637451171875,-0.0068206787109375,-1.0044403076171875
1779786629697972500,8.730972412109375,0.0089111328125,-0.01373291015625,-1.0101470947265625
1779786629708054500,8.741054443359374,0.0178985595703125,-0.0159759521484375,-1.01202392578125
1779786629718136300,8.75113623046875,0.0270538330078125,-0.010833740234375,-1.0182647705078125
1779786629728218400,8.76121826171875,0.036834716796875,-0.004119873046875,-1.0188446044921875
1779786629738299400,8.77129931640625,0.0406951904296875,-0.0003814697265625,-1.0144500732421875
1779786629748381400,8.78138134765625,0.03997802734375,0.00537109375,-1.017669677734375
1779786629758463500,8.79146337890625,0.0380401611328125,0.0069427490234375,-1.0145721435546875
1779786629768545300,8.801545166015625,0.031463623046875,0.0131072998046875,-0.9991912841796875
1779786629778627300,8.81162744140625,0.021209716796875,0.0211029052734375,-0.9882659912109375
1779786629788709400,8.82170947265625,0.010101318359375,0.02783203125,-0.995086669921875
1779786629798791400,8.83179150390625,0.0046234130859375,0.02325439453125,-1.00030517578125
1779786629808873500,8.84187353515625,0.00115966796875,0.0243682861328125,-1.0128631591796875
1779786629818955500,8.85195556640625,-0.009857177734375,0.02239990234375,-1.0109405517578125
1779786629829037300,8.862037353515625,-0.0186767578125,0.020904541015625,-1.0142364501953125
1779786629839119400,8.872119384765625,-0.022247314453125,0.01751708984375,-1.0115203857421875
1779786629849201400,8.882201416015626,-0.0232086181640625,0.017852783203125,-1.00701904296875
1779786629859283500,8.892283447265624,-0.019622802734375,0.0208892822265625,-1.0015716552734375
1779786629869365500,8.902365478515625,-0.01043701171875,0.0254364013671875,-1.0030364990234375
1779786629879447600,8.912447509765625,0.00091552734375,0.027923583984375,-1.0067291259765625
1779786629889529300,8.922529296875,0.0119171142578125,0.0248565673828125,-1.0066070556640625
1779786629899611400,8.932611328125,0.018768310546875,0.020294189453125,-1.0081329345703125
1779786629909693400,8.942693359375,0.0212860107421875,0.015716552734375,-1.0023040771484375
1779786629919775500,8.952775390625,0.0214385986328125,0.0124664306640625,-0.9913482666015625
1779786629929856500,8.9628564453125,0.0134429931640625,0.012847900390625,-0.9843597412109375
1779786629939938600,8.9729384765625,0.0078887939453125,0.0153961181640625,-0.979644775390625
1779786629950020400,8.983020263671875,0.0071563720703125,0.01776123046875,-0.9773406982421875
1779786629960102400,8.993102294921876,0.0101776123046875,0.0164642333984375,-0.9735107421875
1779786629970184400,9.003184326171874,0.0127105712890625,0.011749267578125,-0.9712677001953125
1779786629980266200,9.013266357421875,0.01318359375,0.00823974609375,-0.9685821533203125
1779786629990348300,9.023348388671875,0.0121307373046875,0.004241943359375,-0.9755859375
1779786630000430300,9.033430419921874,0.009429931640625,0.0020294189453125,-0.97637939453125
1779786630010512400,9.043512451171875,0.0057830810546875,0.003509521484375,-0.971527099609375
1779786630020594400,9.053594482421875,0.002532958984375,0.00396728515625,-0.9610443115234375
1779786630030676500,9.063676513671876,0.0028076171875,0.0073394775390625,-0.9575042724609375
1779786630040758300,9.07375830078125,-0.0055084228515625,0.01324462890625,-0.9623870849609375
1779786630050840300,9.08384033203125,-0.0106353759765625,0.0153045654296875,-0.955474853515625
1779786630060922400,9.09392236328125,-0.0055084228515625,0.01397705078125,-0.9618377685546875
1779786630071004400,9.10400439453125,0.00177001953125,0.009918212890625,-0.964508056640625
1779786630081086500,9.11408642578125,0.0110015869140625,0.0053558349609375,-0.9536590576171875
1779786630091168500,9.12416845703125,0.0177459716796875,0.001617431640625,-0.9501800537109375
1779786630101250300,9.134250244140626,0.02728271484375,-0.0011749267578125,-0.9638214111328125
1779786630111332400,9.144332275390624,0.036346435546875,-0.0005035400390625,-0.9805145263671875
1779786630121414400,9.154414306640625,0.039642333984375,0.005523681640625,-0.9855194091796875
1779786630131496400,9.164496337890625,0.0455322265625,0.008087158203125,-0.9925079345703125
1779786630141577500,9.174577392578126,0.042144775390625,0.0073699951171875,-0.998809814453125
1779786630151659500,9.184659423828125,0.039093017578125,0.0039215087890625,-1.007171630859375
1779786630161741600,9.194741455078125,0.0374603271484375,0.0045318603515625,-1.001190185546875
1779786630171823600,9.20482373046875,0.033416748046875,0.0048675537109375,-0.9874267578125
1779786630181905400,9.214905517578124,0.0324859619140625,0.0083160400390625,-1.0054779052734375
1779786630191987500,9.224987548828125,0.029937744140625,0.006500244140625,-1.0163421630859375
1779786630202069500,9.235069580078125,0.024200439453125,0.0128631591796875,-1.0224151611328125
1779786630212151600,9.245151611328126,0.0166778564453125,0.022247314453125,-1.0301513671875
1779786630222233600,9.255233642578125,0.009796142578125,0.0268402099609375,-1.035980224609375
1779786630232315600,9.265315673828125,-0.002288818359375,0.0271148681640625,-1.027557373046875
1779786630242397400,9.2753974609375,-0.0054473876953125,0.024810791015625,-1.0185394287109375
1779786630252479200,9.285479248046874,-0.002349853515625,0.0172271728515625,-1.0164337158203125
1779786630262561300,9.295561279296875,0.0035400390625,0.009613037109375,-1.0176239013671875
1779786630272643300,9.305643310546875,0.0145111083984375,0.0023345947265625,-1.02227783203125
1779786630282725400,9.315725341796876,0.0301513671875,0.0088043212890625,-1.019317626953125
1779786630292807400,9.325807373046874,0.0458831787109375,0.023468017578125,-1.01531982421875
1779786630302889500,9.335889404296875,0.0612030029296875,0.029571533203125,-1.01690673828125
1779786630312971300,9.34597119140625,0.0696258544921875,0.0339202880859375,-1.012420654296875
1779786630323053300,9.35605322265625,0.075775146484375,0.0330963134765625,-1.0081024169921875
1779786630333135400,9.36613525390625,0.06622314453125,0.0326080322265625,-1.0045928955078125
1779786630343217400,9.376217529296875,0.044769287109375,0.024627685546875,-1.0037384033203125
1779786630353299500,9.386299560546876,0.02740478515625,0.0146331787109375,-1.0027008056640625
1779786630363381500,9.396381591796874,0.01629638671875,0.0077362060546875,-1.00592041015625
1779786630373463300,9.40646337890625,0.00958251953125,0.00433349609375,-1.0030364990234375
1779786630383544300,9.41654443359375,-0.0001373291015625,0.00628662109375,-0.994415283203125
1779786630393626400,9.42662646484375,-0.0018463134765625,0.0089111328125,-0.9907379150390625
1779786630403708400,9.43670849609375,0.0025787353515625,0.0047607421875,-0.984771728515625
1779786630413790500,9.44679052734375,0.0070648193359375,0.0059051513671875,-0.975189208984375
1779786630423872500,9.45687255859375,0.010009765625,0.001129150390625,-0.9718170166015625
1779786630433954600,9.46695458984375,0.005035400390625,-0.0060882568359375,-0.9719085693359375
1779786630444036600,9.47703662109375,-0.0047607421875,-0.0115966796875,-0.980926513671875
1779786630454118400,9.487118408203125,-0.015289306640625,-0.01007080078125,-0.99072265625
1779786630464200400,9.497200439453126,-0.0173492431640625,-0.0052337646484375,-0.9921875
1779786630474282500,9.507282470703124,-0.01617431640625,0.003387451171875,-0.9835662841796875
1779786630484364500,9.517364501953125,-0.0107269287109375,0.0084686279296875,-0.972442626953125
1779786630494446600,9.527446533203126,-0.0095977783203125,0.0043487548828125,-0.962890625
1779786630504528600,9.537528564453124,-0.00848388671875,-0.003631591796875,-0.9611663818359375
1779786630514610400,9.5476103515625,-0.006591796875,-0.0110015869140625,-0.9589080810546875
1779786630524692500,9.5576923828125,0.00482177734375,-0.0179290771484375,-0.9762420654296875
1779786630534774500,9.5677744140625,0.0108489990234375,-0.0158233642578125,-0.9927978515625
1779786630544856300,9.577856201171874,0.0059051513671875,-0.0080108642578125,-0.99420166015625
1779786630554938400,9.5879384765625,-0.0066375732421875,0.0041961669921875,-0.9957733154296875
1779786630565020400,9.5980205078125,-0.0143280029296875,0.0113525390625,-0.99658203125
1779786630575102200,9.608102294921874,-0.021270751953125,0.0043487548828125,-0.9893951416015625
1779786630585184300,9.618184326171875,-0.0286865234375,-0.0054779052734375,-0.98748779296875
1779786630595266300,9.628266357421875,-0.0348358154296875,-0.012908935546875,-0.98675537109375
1779786630605348400,9.638348388671876,-0.039154052734375,-0.0157623291015625,-0.9870452880859375
1779786630615430400,9.648430419921874,-0.0409088134765625,-0.0117034912109375,-0.99066162109375
1779786630625512400,9.658512451171875,-0.0401153564453125,-0.0024871826171875,-1.00152587890625
1779786630635594200,9.66859423828125,-0.0316009521484375,0.0093994140625,-1.0088043212890625
1779786630645676300,9.67867626953125,-0.0237274169921875,0.015411376953125,-1.00634765625
1779786630655758300,9.68875830078125,-0.02044677734375,0.02093505859375,-0.9973297119140625
1779786630665840400,9.69884033203125,-0.0214996337890625,0.0252532958984375,-0.9890289306640625
1779786630675922400,9.70892236328125,-0.024261474609375,0.01739501953125,-0.9844818115234375
1779786630686004500,9.71900439453125,-0.0212860107421875,0.0083770751953125,-0.981475830078125
1779786630696086500,9.72908642578125,-0.0137481689453125,0.0001373291015625,-0.986175537109375
1779786630706168300,9.739168212890625,-0.0032806396484375,0.0009002685546875,-0.996917724609375
1779786630716250400,9.74925048828125,0.0101470947265625,0.0101470947265625,-1.0023040771484375
1779786630726332400,9.75933251953125,0.0224151611328125,0.02056884765625,-0.993133544921875
1779786630736413400,9.769413330078125,0.0252227783203125,0.022705078125,-0.988250732421875
1779786630746495500,9.77949560546875,0.02825927734375,0.016326904296875,-0.9898834228515625
1779786630756577500,9.78957763671875,0.0253143310546875,0.0125274658203125,-0.9875640869140625
1779786630766659600,9.79965966796875,0.0167999267578125,0.0073089599609375,-0.9842071533203125
1779786630776741600,9.80974169921875,0.00762939453125,0.0029144287109375,-0.9795379638671875
1779786630786823400,9.819823486328126,0.0111541748046875,0.0063018798828125,-0.9756011962890625
1779786630796905500,9.829905517578124,0.0226593017578125,0.013580322265625,-0.976165771484375
1779786630806987500,9.839987548828125,0.0322113037109375,0.018402099609375,-0.9710540771484375
1779786630817069600,9.850069580078125,0.0382232666015625,0.0205230712890625,-0.9680328369140625
1779786630827151600,9.860151611328124,0.0409088134765625,0.0170135498046875,-0.9635467529296875
1779786630837233700,9.870233642578125,0.04278564453125,0.0106201171875,-0.960845947265625
1779786630847315200,9.880315185546875,0.0430755615234375,0.000732421875,-0.9650726318359375
1779786630857397800,9.890397705078126,0.04156494140625,-0.003387451171875,-0.981903076171875
1779786630867479800,9.900479736328125,0.0412750244140625,0.00146484375,-0.99542236328125
1779786630877561900,9.910561767578125,0.049468994140625,0.0114898681640625,-1.0022735595703125
1779786630887644000,9.920643798828126,0.0587615966796875,0.0196533203125,-0.99322509765625
1779786630897725700,9.9307255859375,0.06146240234375,0.0225830078125,-0.982452392578125
1779786630907807700,9.940807861328125,0.0591278076171875,0.021759033203125,-0.98260498046875
1779786630917889800,9.950889892578125,0.0527191162109375,0.0188751220703125,-0.9841766357421875
1779786630927971800,9.960971923828126,0.041778564453125,0.017303466796875,-0.982025146484375
1779786630938054000,9.971053955078125,0.033721923828125,0.0177154541015625,-0.9864959716796875
1779786630948136000,9.981135986328125,0.0269317626953125,0.02130126953125,-1.001556396484375
1779786630958218000,9.991218017578126,0.020477294921875,0.02215576171875,-1.0072784423828125
1779786630968299800,10.0012998046875,0.016998291015625,0.022247314453125,-1.005340576171875
1779786630978381800,10.0113818359375,0.0115966796875,0.0219268798828125,-1.0027923583984375
1779786630988463900,10.0214638671875,0.00146484375,0.014434814453125,-0.9992218017578125
1779786630998546000,10.0315458984375,-0.00775146484375,0.0084075927734375,-0.99609375
1779786631008628000,10.0416279296875,-0.0147552490234375,0.0032501220703125,-0.99383544921875
1779786631018710000,10.0517099609375,-0.019989013671875,0.002532958984375,-1.00067138671875
1779786631028791800,10.061791748046875,-0.0217437744140625,0.005859375,-1.0048675537109375
1779786631038873900,10.071873779296874,-0.02508544921875,0.0111083984375,-1.0067596435546875
1779786631048956000,10.081955810546875,-0.0278778076171875,0.0136871337890625,-1.0054779052734375
1779786631059038000,10.092037841796875,-0.028778076171875,0.0137939453125,-1.0061798095703125
1779786631069120000,10.1021201171875,-0.0317535400390625,0.0157470703125,-0.997344970703125
1779786631079202000,10.1122021484375,-0.0327301025390625,0.0157470703125,-0.98779296875
1779786631089283800,10.122283935546875,-0.0319671630859375,0.016265869140625,-0.9816741943359375
1779786631099366000,10.132365966796876,-0.027740478515625,0.0166778564453125,-0.9775848388671875
1779786631109448000,10.142447998046874,-0.019927978515625,0.0178070068359375,-0.97833251953125
1779786631119530000,10.152530029296875,-0.012939453125,0.0158538818359375,-0.977874755859375
1779786631129612000,10.162612060546875,-0.0101318359375,0.014068603515625,-0.974456787109375
1779786631139694000,10.172694091796876,-0.0131378173828125,0.010772705078125,-0.9774932861328125
1779786631149776000,10.18277587890625,-0.0133819580078125,0.005157470703125,-0.978973388671875
1779786631159858000,10.19285791015625,-0.010955810546875,0.003997802734375,-0.9828948974609375
1779786631169940000,10.20293994140625,-0.0048370361328125,0.0021514892578125,-0.9816131591796875
1779786631180022000,10.21302197265625,-0.001617431640625,0.0075836181640625,-0.98150634765625
1779786631190103800,10.223103759765625,-0.001312255859375,0.0123291015625,-0.9887237548828125
1779786631200185900,10.233185791015625,-0.00189208984375,0.010406494140625,-0.9849700927734375
1779786631210268000,10.243267822265626,-0.0036163330078125,0.0079193115234375,-0.98583984375
1779786631220349700,10.253349609375,-0.0020751953125,0.0036773681640625,-0.9932403564453125
1779786631230431700,10.263431640625,-0.0039215087890625,-0.001953125,-0.9859466552734375
1779786631240513800,10.273513671875,-0.0113525390625,-0.003997802734375,-0.98529052734375
1779786631250595800,10.283595947265624,-0.0176849365234375,-0.0042877197265625,-0.9986114501953125
1779786631260678000,10.293677978515625,-0.021240234375,-0.0031280517578125,-1.0032196044921875
1779786631270760000,10.303760009765625,-0.0197601318359375,0.0015411376953125,-1.004486083984375
1779786631280841700,10.313841796875,-0.0152740478515625,0.0045318603515625,-1.0052947998046875
1779786631290923800,10.323923828125,-0.010009765625,0.0012969970703125,-1.00482177734375
1779786631301005800,10.334005859375,-0.0109405517578125,-0.0041046142578125,-0.999542236328125
1779786631311087900,10.344087890625,-0.012115478515625,-0.00579833984375,-0.998779296875
1779786631321170000,10.354169921875,-0.004425048828125,-0.0076904296875,-1.0015716552734375
1779786631331252000,10.364251953125,0.00628662109375,-0.0106201171875,-0.997589111328125
1779786631341333800,10.374333740234375,0.0165252685546875,-0.009185791015625,-0.9893951416015625
1779786631351415800,10.384415771484376,0.02850341796875,-0.0061187744140625,-0.97821044921875
1779786631361497900,10.394497802734374,0.027801513671875,-0.005645751953125,-0.969207763671875
1779786631371580000,10.404579833984375,0.0200958251953125,-0.0094451904296875,-0.9720916748046875
1779786631381662000,10.414661865234375,0.0170440673828125,-0.0126953125,-0.986572265625
1779786631391744000,10.424743896484374,0.0164031982421875,-0.0167083740234375,-0.9981689453125
1779786631401825800,10.43482568359375,0.0216827392578125,-0.00958251953125,-1.003173828125
1779786631411907800,10.444907958984375,0.02783203125,-0.001068115234375,-1.00714111328125
1779786631421990000,10.454989990234376,0.029815673828125,0.000732421875,-1.0036468505859375
1779786631432072000,10.465072021484374,0.026458740234375,0.0062103271484375,-0.99542236328125
1779786631442154000,10.475154052734375,0.0210113525390625,0.0122528076171875,-0.9915924072265625
1779786631452236000,10.485236083984375,0.015106201171875,0.0160675048828125,-0.989044189453125
1779786631462317800,10.49531787109375,0.0063018798828125,0.0232086181640625,-0.9867401123046875
1779786631472400000,10.50539990234375,0.000274658203125,0.032257080078125,-0.992919921875
1779786631482482000,10.51548193359375,-0.0028228759765625,0.040985107421875,-0.9916839599609375
1779786631492564000,10.52556396484375,0.0001068115234375,0.0421600341796875,-0.995361328125
1779786631502646000,10.53564599609375,-0.001953125,0.0408477783203125,-0.999237060546875
1779786631512728000,10.54572802734375,-0.0073089599609375,0.038238525390625,-1.0005950927734375
1779786631522809900,10.555809814453125,-0.011016845703125,0.033477783203125,-1.0048065185546875
1779786631532892000,10.565891845703124,-0.007110595703125,0.0294189453125,-1.0082244873046875
1779786631542974000,10.575973876953125,-0.003143310546875,0.03387451171875,-1.0156707763671875
1779786631553056000,10.586055908203125,-0.003662109375,0.0385284423828125,-1.0136260986328125
1779786631563137800,10.5961376953125,-0.0025787353515625,0.0395050048828125,-1.017578125
1779786631573219800,10.6062197265625,-0.00091552734375,0.03643798828125,-1.020111083984375
1779786631583302000,10.616302001953125,0.004364013671875,0.0336151123046875,-1.01806640625
1779786631593383700,10.6263837890625,0.0070037841796875,0.0266571044921875,-1.01202392578125
1779786631603465700,10.6364658203125,0.005859375,0.02313232421875,-1.00665283203125
1779786631613547800,10.6465478515625,0.0022125244140625,0.0159454345703125,-1.0017547607421875
1779786631623629800,10.6566298828125,0.008880615234375,0.0130462646484375,-0.9962615966796875
1779786631633711900,10.6667119140625,0.0155029296875,0.01251220703125,-0.9899444580078125
1779786631643794000,10.6767939453125,0.019287109375,0.01788330078125,-0.978485107421875
1779786631653875700,10.686875732421875,0.01922607421875,0.022552490234375,-0.9766693115234375
1779786631663957800,10.696957763671875,0.017547607421875,0.018798828125,-0.976287841796875
1779786631674039800,10.707039794921876,0.0107879638671875,0.0117034912109375,-0.980438232421875
1779786631684121900,10.717121826171875,0.0048828125,0.00244140625,-0.985565185546875
1779786631694204000,10.727203857421875,0.0027008056640625,-0.0027313232421875,-0.985687255859375
1779786631704286000,10.737285888671876,0.006683349609375,-0.0049285888671875,-0.986724853515625
1779786631714367700,10.74736767578125,0.00836181640625,-0.001556396484375,-0.986785888671875
1779786631724449800,10.75744970703125,0.0106048583984375,0.0041351318359375,-0.98419189453125
1779786631734531800,10.76753173828125,0.008819580078125,0.0058746337890625,-0.9781951904296875
1779786631744614000,10.77761376953125,0.0062408447265625,0.0059356689453125,-0.97747802734375
1779786631754696000,10.787696044921875,0.0048675537109375,0.00396728515625,-0.9817047119140625
1779786631764778000,10.797778076171875,0.010498046875,0.001556396484375,-0.9818878173828125
1779786631774860000,10.807860107421876,0.0189056396484375,0.0022430419921875,-0.980865478515625
1779786631784941800,10.81794189453125,0.024200439453125,0.0018310546875,-0.9851531982421875
1779786631795024000,10.82802392578125,0.0259246826171875,0.00250244140625,-1.00164794921875
1779786631805106000,10.83810595703125,0.03009033203125,0.0008087158203125,-1.0146484375
1779786631815188000,10.84818798828125,0.03875732421875,-0.00018310546875,-1.00726318359375
1779786631825270000,10.85827001953125,0.0358428955078125,0.002166748046875,-1.003753662109375
1779786631835352000,10.86835205078125,0.031097412109375,-0.005279541015625,-1.0041351318359375
1779786631845433900,10.878433837890626,0.0240936279296875,-0.009796142578125,-1.0001373291015625
1779786631855515100,10.88851513671875,0.0220184326171875,-0.0070343017578125,-1.0054779052734375
1779786631865597200,10.89859716796875,0.02178955078125,-0.0028839111328125,-1.0045166015625
1779786631875679200,10.90867919921875,0.0228271484375,0.00433349609375,-1.0041961669921875
1779786631885761300,10.91876123046875,0.021697998046875,0.009552001953125,-1.004150390625
1779786631895843300,10.92884326171875,0.010162353515625,0.0172119140625,-1.0035858154296875
1779786631905925400,10.93892529296875,-0.00091552734375,0.020599365234375,-1.0008697509765625
1779786631916007200,10.949007080078125,-0.00506591796875,0.020355224609375,-0.994964599609375
1779786631926089200,10.959089111328124,-0.0031585693359375,0.022735595703125,-0.9912872314453125
1779786631936171300,10.969171142578125,0.0038299560546875,0.0220794677734375,-0.98736572265625
1779786631946253300,10.97925341796875,0.0184478759765625,0.0236358642578125,-0.9862823486328125
1779786631956335400,10.98933544921875,0.0302581787109375,0.0254974365234375,-0.9878082275390625
1779786631966417400,10.99941748046875,0.03515625,0.0317230224609375,-0.9915618896484375
1779786631976499200,11.009499267578125,0.0399627685546875,0.035369873046875,-0.9978179931640625
1779786631986581200,11.019581298828125,0.04119873046875,0.03277587890625,-1.003326416015625
1779786631996664300,11.029664306640624,0.0397796630859375,0.0316162109375,-1.0054931640625
1779786632006746400,11.039746337890625,0.0359039306640625,0.0339508056640625,-1.0024566650390625
1779786632016828400,11.049828369140625,0.030029296875,0.035125732421875,-0.993743896484375
1779786632026910200,11.05991015625,0.0230560302734375,0.0372314453125,-0.9844818115234375
1779786632036992300,11.0699921875,0.0204010009765625,0.03570556640625,-0.9846649169921875
1779786632047074300,11.08007421875,0.022125244140625,0.037109375,-0.9924468994140625
1779786632057156400,11.09015625,0.022552490234375,0.0349884033203125,-1.00189208984375
1779786632067238400,11.10023828125,0.01422119140625,0.0306396484375,-1.004302978515625
1779786632077320400,11.110320556640625,0.0009918212890625,0.0264434814453125,-1.0083160400390625
1779786632087402200,11.12040234375,-0.0031585693359375,0.0216522216796875,-1.0060577392578125
1779786632097484300,11.130484375,0.000579833984375,0.018463134765625,-0.9940948486328125
1779786632107566300,11.14056640625,0.0050201416015625,0.01678466796875,-0.98876953125
1779786632117648400,11.1506484375,0.007293701171875,0.018646240234375,-0.9855499267578125
1779786632127730400,11.16073046875,0.0052337646484375,0.0252227783203125,-0.9837493896484375
1779786632137812500,11.1708125,0.000946044921875,0.0312042236328125,-0.987091064453125
1779786632147894300,11.180894287109375,0.001800537109375,0.0279541015625,-0.9958343505859375
1779786632157976000,11.19097607421875,0.00439453125,0.0222930908203125,-0.9981689453125
1779786632168058000,11.20105810546875,0.0061492919921875,0.0142822265625,-0.99176025390625
1779786632178140200,11.21114013671875,0.0115966796875,0.00537109375,-0.9816741943359375
1779786632188222200,11.22122216796875,0.016998291015625,0.00238037109375,-0.97686767578125
1779786632198304300,11.23130419921875,0.0245208740234375,0.0022125244140625,-0.970001220703125
1779786632208386300,11.24138623046875,0.0294036865234375,0.006439208984375,-0.9802398681640625
1779786632218468000,11.251468017578125,0.0314788818359375,0.020416259765625,-0.971832275390625
1779786632228550100,11.261550048828125,0.0599822998046875,0.024505615234375,-0.9708251953125
1779786632238632200,11.271632080078126,0.08087158203125,0.0264129638671875,-0.96783447265625
1779786632248714200,11.28171435546875,0.080963134765625,0.026275634765625,-0.9657745361328125
1779786632258796300,11.29179638671875,0.0785369873046875,0.0245361328125,-0.9567108154296875
1779786632268878300,11.30187841796875,0.0832366943359375,0.0189361572265625,-0.9526214599609375
1779786632278960000,11.311960205078124,0.0891876220703125,0.015167236328125,-0.9528350830078125
1779786632289042200,11.322042236328125,0.0874786376953125,0.0158233642578125,-0.9516143798828125
1779786632299124200,11.332124267578125,0.083740234375,0.014923095703125,-0.9593505859375
1779786632309206300,11.342206298828126,0.0737762451171875,0.012176513671875,-0.9713287353515625
1779786632319288300,11.352288330078125,0.0569305419921875,0.00677490234375,-0.98712158203125
1779786632329370400,11.362370361328125,0.0332489013671875,0.0045928955078125,-0.9884490966796875
1779786632339452200,11.3724521484375,0.0159759521484375,0.0081939697265625,-0.989501953125
1779786632349534200,11.3825341796875,0.00567626953125,0.0108795166015625,-0.995269775390625
1779786632359616300,11.3926162109375,-0.0115966796875,0.0116119384765625,-0.996185302734375
1779786632369699300,11.40269921875,-0.0321502685546875,0.0147857666015625,-0.996429443359375
1779786632379781000,11.412781005859374,-0.0458831787109375,0.0251007080078125,-0.999237060546875
1779786632389863200,11.42286328125,-0.0457916259765625,0.0299072265625,-1.004119873046875
1779786632399945200,11.4329453125,-0.0298614501953125,0.0334625244140625,-1.0055694580078125
1779786632410027300,11.44302734375,-0.0091705322265625,0.0327301025390625,-1.0044403076171875
1779786632420109300,11.453109375,0.0044403076171875,0.029876708984375,-0.9990081787109375
1779786632430191400,11.46319140625,0.0116729736328125,0.0247955322265625,-0.9954986572265625
1779786632440273400,11.4732734375,0.0193634033203125,0.0211639404296875,-0.9954833984375
1779786632450355200,11.483355224609374,0.0253448486328125,0.0182647705078125,-0.999786376953125
1779786632460437200,11.493437255859375,0.0294036865234375,0.019073486328125,-0.999176025390625
1779786632470519300,11.503519287109375,0.03326416015625,0.0223541259765625,-0.994781494140625
1779786632480601300,11.513601318359376,0.0331268310546875,0.026153564453125,-0.990325927734375
1779786632490683400,11.523683349609374,0.02423095703125,0.025115966796875,-0.9900665283203125
1779786632500765400,11.533765380859375,0.016815185546875,0.017242431640625,-0.9968414306640625
1779786632510847200,11.54384716796875,0.0146942138671875,0.00616455078125,-1.00341796875
1779786632520929300,11.55392919921875,0.013641357421875,-0.0001678466796875,-1.00042724609375
1779786632531011300,11.56401123046875,0.0111846923828125,-0.0059814453125,-0.9968719482421875
1779786632541093400,11.57409326171875,0.0093994140625,-0.0041351318359375,-0.9896697998046875
1779786632551175400,11.584175537109376,0.0027923583984375,-0.0031890869140625,-0.9871826171875
1779786632561257500,11.594257568359374,-0.00384521484375,-0.003936767578125,-0.9945831298828125
1779786632571339300,11.60433935546875,-0.0111846923828125,-0.00732421875,-1.0051422119140625
1779786632581421300,11.61442138671875,-0.017059326171875,-0.011962890625,-1.00244140625
1779786632591503000,11.624503173828124,-0.02264404296875,-0.015228271484375,-0.9991912841796875
1779786632601585200,11.634585205078125,-0.02838134765625,-0.0161590576171875,-0.9981536865234375
1779786632611667200,11.644667236328125,-0.0345916748046875,-0.01776123046875,-1.00506591796875
1779786632621749200,11.654749267578126,-0.0412139892578125,-0.0133056640625,-1.0090484619140625
1779786632631831300,11.664831298828124,-0.04730224609375,-0.005218505859375,-1.01190185546875
1779786632641914400,11.674914306640625,-0.0542144775390625,0.0016021728515625,-1.012725830078125
1779786632651996400,11.684996337890626,-0.059051513671875,0.004547119140625,-1.011199951171875
1779786632662078200,11.695078125,-0.0601348876953125,0.0002593994140625,-1.014312744140625
1779786632672160300,11.70516015625,-0.0636444091796875,-0.0026092529296875,-1.01324462890625
1779786632682242000,11.715241943359375,-0.0670318603515625,-0.0037384033203125,-1.008392333984375
1779786632692324000,11.725323974609376,-0.066619873046875,-0.0076904296875,-1.0009002685546875
1779786632702406100,11.73540625,-0.0656585693359375,-0.0059051513671875,-0.9923858642578125
1779786632712488200,11.74548828125,-0.06182861328125,0.00421142578125,-0.9967041015625
1779786632722570200,11.7555703125,-0.057708740234375,0.009979248046875,-0.9992218017578125
1779786632732652300,11.76565234375,-0.0527496337890625,0.0128173828125,-0.9976348876953125
1779786632742734000,11.775734130859375,-0.0471038818359375,0.009490966796875,-1.00653076171875
1779786632752816000,11.785816162109375,-0.05126953125,0.007965087890625,-1.007476806640625
1779786632762898200,11.795898193359376,-0.051544189453125,0.0069122314453125,-1.0033721923828125
1779786632772980200,11.805980224609375,-0.04852294921875,0.0060272216796875,-0.9925537109375
1779786632783062300,11.816062255859375,-0.0450592041015625,0.004486083984375,-0.9866790771484375
1779786632793144300,11.826144287109376,-0.04791259765625,0.0037689208984375,-0.992828369140625
1779786632803226000,11.83622607421875,-0.0577392578125,0.0045166015625,-1.0039825439453125
1779786632813308200,11.84630810546875,-0.07464599609375,0.007476806640625,-1.0089874267578125
1779786632823390200,11.85639013671875,-0.088653564453125,0.0065155029296875,-1.012451171875
1779786632833472300,11.86647216796875,-0.0977325439453125,0.0074310302734375,-1.0115203857421875
1779786632843554300,11.87655419921875,-0.1036224365234375,0.00732421875,-1.0070037841796875
1779786632853636900,11.886636962890625,-0.1043243408203125,0.00482177734375,-0.9960784912109375
1779786632863719700,11.8967197265625,-0.1013031005859375,0.0030975341796875,-0.98956298828125
1779786632873801700,11.9068017578125,-0.097015380859375,0.003997802734375,-0.989471435546875
1779786632883883800,11.9168837890625,-0.0950775146484375,0.005218505859375,-0.9881439208984375
1779786632893965800,11.9269658203125,-0.0905609130859375,0.0117950439453125,-0.9866943359375
1779786632904047600,11.937047607421874,-0.0823211669921875,0.017059326171875,-0.989990234375
1779786632914129700,11.947129638671875,-0.0745391845703125,0.018280029296875,-0.9852142333984375
1779786632924211700,11.957211669921875,-0.0683441162109375,0.018402099609375,-0.981964111328125
1779786632934293800,11.967293701171876,-0.0648651123046875,0.013031005859375,-0.9785919189453125
1779786632944375800,11.977375732421875,-0.0613555908203125,0.004180908203125,-0.978118896484375
1779786632954457600,11.98745751953125,-0.062469482421875,-0.002471923828125,-0.9815673828125
1779786632964539600,11.99753955078125,-0.0673370361328125,-0.0078125,-0.9907073974609375
1779786632974621400,12.007621337890624,-0.0803680419921875,-0.009552001953125,-1.00164794921875
1779786632984703500,12.017703369140625,-0.0898590087890625,-0.00579833984375,-1.010833740234375
1779786632994785500,12.02778564453125,-0.100860595703125,-0.0017852783203125,-1.0143280029296875
1779786633004867600,12.03786767578125,-0.1096343994140625,0.00201416015625,-1.015472412109375
1779786633014949600,12.04794970703125,-0.1097412109375,-0.0029754638671875,-1.0167236328125
1779786633025031700,12.05803173828125,-0.10003662109375,-0.0098724365234375,-1.0122833251953125
1779786633035113500,12.068113525390626,-0.09320068359375,-0.01690673828125,-1.01214599609375
1779786633045195500,12.078195556640624,-0.0834503173828125,-0.01922607421875,-1.0156707763671875
1779786633055277600,12.088277587890625,-0.07049560546875,-0.013702392578125,-1.0147857666015625
1779786633065360600,12.098360595703125,-0.06103515625,-0.0072174072265625,-1.0095977783203125
1779786633075442400,12.1084423828125,-0.057861328125,-0.0027618408203125,-1.0058135986328125
1779786633085524500,12.1185244140625,-0.055206298828125,-0.007080078125,-1.005096435546875
1779786633095606500,12.1286064453125,-0.0473785400390625,-0.016998291015625,-1.0110015869140625
1779786633105688600,12.1386884765625,-0.0378875732421875,-0.02764892578125,-1.006439208984375
1779786633115770600,12.1487705078125,-0.0269012451171875,-0.034912109375,-0.9961395263671875
1779786633125852700,12.158852783203125,-0.0204620361328125,-0.038238525390625,-0.9991912841796875
1779786633135934500,12.1689345703125,-0.0305023193359375,-0.03564453125,-1.00469970703125
1779786633146016500,12.1790166015625,-0.048492431640625,-0.0333709716796875,-1.0075531005859375
1779786633156098600,12.1890986328125,-0.0592193603515625,-0.0299072265625,-1.0095367431640625
1779786633166180600,12.1991806640625,-0.0688323974609375,-0.02496337890625,-1.00439453125
1779786633176262700,12.2092626953125,-0.0839691162109375,-0.0201263427734375,-0.9950408935546875
1779786633186344700,12.2193447265625,-0.0974884033203125,-0.0128021240234375,-0.98846435546875
1779786633196426800,12.2294267578125,-0.1036834716796875,-0.006011962890625,-0.98443603515625
1779786633206508500,12.239508544921875,-0.0991973876953125,0.00164794921875,-0.9881439208984375
1779786633216590600,12.249590576171874,-0.093475341796875,0.0085296630859375,-0.988250732421875
1779786633226672600,12.259672607421875,-0.08343505859375,0.0167236328125,-0.9868927001953125
1779786633236755700,12.269755615234375,-0.07403564453125,0.0211334228515625,-0.98345947265625
1779786633246837500,12.27983740234375,-0.0673980712890625,0.020477294921875,-0.97979736328125
1779786633256919600,12.28991943359375,-0.0614013671875,0.0183563232421875,-0.975494384765625
1779786633267001600,12.300001708984375,-0.052825927734375,0.0140380859375,-0.9746246337890625
1779786633277083600,12.310083740234376,-0.0380096435546875,0.01123046875,-0.972259521484375
1779786633287165700,12.320165771484374,-0.02838134765625,0.0123748779296875,-0.9760894775390625
1779786633297247700,12.330247802734375,-0.0278167724609375,0.0148162841796875,-0.9904632568359375
1779786633307329500,12.34032958984375,-0.0374755859375,0.021575927734375,-0.997314453125
1779786633317411600,12.35041162109375,-0.0488433837890625,0.029510498046875,-0.99334716796875
1779786633327493600,12.36049365234375,-0.0574493408203125,0.0329132080078125,-0.9852447509765625
1779786633337575700,12.37057568359375,-0.062103271484375,0.0308837890625,-0.9853668212890625
1779786633347657700,12.38065771484375,-0.07147216796875,0.0240325927734375,-0.98992919921875
1779786633357739800,12.39073974609375,-0.085479736328125,0.01678466796875,-0.994293212890625
1779786633367821600,12.400821533203125,-0.0985565185546875,0.0085906982421875,-1.00018310546875
1779786633377903600,12.410903564453125,-0.107818603515625,0.0067901611328125,-1.0086212158203125
1779786633387985700,12.420985595703126,-0.1093902587890625,0.0192413330078125,-1.010406494140625
1779786633398068700,12.43106884765625,-0.096221923828125,0.031951904296875,-1.0129547119140625
1779786633408150800,12.44115087890625,-0.0770111083984375,0.0405426025390625,-1.0133514404296875
1779786633418232600,12.451232666015626,-0.0640716552734375,0.0449371337890625,-1.009796142578125
1779786633428314600,12.461314697265625,-0.0643310546875,0.0454559326171875,-1.0010986328125
1779786633438396700,12.471396728515625,-0.0621795654296875,0.0460205078125,-0.990081787109375
1779786633448478700,12.481478759765626,-0.052734375,0.0396728515625,-0.9863433837890625
1779786633458560800,12.491560791015624,-0.04168701171875,0.0298614501953125,-0.9806976318359375
1779786633468642800,12.501642822265625,-0.0301971435546875,0.027435302734375,-0.975341796875
1779786633478724600,12.511724609375,-0.020263671875,0.0277557373046875,-0.9773101806640625
1779786633488806700,12.521806640625,-0.0172882080078125,0.0325775146484375,-0.977874755859375
1779786633498888700,12.531888671875,-0.0145263671875,0.032989501953125,-0.981964111328125
1779786633508970800,12.541970703125,-0.015533447265625,0.02679443359375,-0.9828948974609375
1779786633519052800,12.552052734375,-0.0183258056640625,0.0229644775390625,-0.9830474853515625
1779786633529134800,12.562134765625,-0.018035888671875,0.014434814453125,-0.9842529296875
1779786633539217700,12.5722177734375,-0.01007080078125,0.007110595703125,-0.990631103515625
1779786633549299700,12.5822998046875,-0.006011962890625,0.000030517578125,-0.9926910400390625
1779786633559381800,12.5923818359375,-0.0093841552734375,-0.0005340576171875,-0.9899444580078125
1779786633569463800,12.6024638671875,-0.0218658447265625,0.0060882568359375,-0.994598388671875
1779786633579545900,12.6125458984375,-0.034393310546875,0.007537841796875,-1.0011749267578125
1779786633589627600,12.622627685546876,-0.042327880859375,0.0050201416015625,-1.003387451171875
1779786633599709700,12.632709716796874,-0.0497283935546875,-0.0002899169921875,-1.0034942626953125
1779786633609791500,12.64279150390625,-0.0604248046875,-0.0065460205078125,-1.00396728515625
1779786633619873500,12.65287353515625,-0.0730438232421875,-0.0121917724609375,-1.0189056396484375
1779786633629955600,12.66295556640625,-0.080596923828125,-0.0128936767578125,-1.0283660888671875
1779786633640037600,12.67303759765625,-0.0844879150390625,-0.005950927734375,-1.0255279541015625
1779786633650119400,12.683119384765625,-0.083831787109375,0.00494384765625,-1.024200439453125
1779786633660201500,12.693201416015626,-0.0827484130859375,0.014617919921875,-1.0239715576171875
1779786633670283500,12.703283447265624,-0.083984375,0.018463134765625,-1.0204010009765625
1779786633680366800,12.713366943359375,-0.0851898193359375,0.0153045654296875,-1.0205535888671875
1779786633690448600,12.72344873046875,-0.0810089111328125,0.0046234130859375,-1.0214385986328125
1779786633700530400,12.733530517578124,-0.075347900390625,-0.004302978515625,-1.0207672119140625
1779786633710612500,12.743612548828125,-0.073516845703125,-0.010223388671875,-1.0207672119140625
1779786633720694500,12.753694580078125,-0.0742950439453125,-0.0178985595703125,-1.02142333984375
1779786633730776600,12.763776611328124,-0.078704833984375,-0.0199127197265625,-1.0208282470703125
1779786633740858600,12.773858642578125,-0.0847320556640625,-0.0192108154296875,-1.01593017578125
1779786633750940700,12.783940673828125,-0.0831756591796875,-0.0187530517578125,-1.0059661865234375
1779786633761022500,12.7940224609375,-0.0817718505859375,-0.01605224609375,-0.993988037109375
1779786633771104500,12.8041044921875,-0.0788726806640625,-0.013519287109375,-0.9874725341796875
1779786633781186600,12.8141865234375,-0.076324462890625,-0.0096282958984375,-0.9848785400390625
1779786633791268600,12.8242685546875,-0.0673675537109375,-0.007781982421875,-0.9824371337890625
1779786633801350700,12.8343505859375,-0.05718994140625,-0.0101470947265625,-0.9897003173828125
1779786633811433500,12.84443359375,-0.0562896728515625,-0.0113983154296875,-0.988006591796875
1779786633821515500,12.854515625,-0.05950927734375,-0.012451171875,-0.985076904296875
1779786633831597600,12.86459765625,-0.0540618896484375,-0.0142822265625,-0.985931396484375
1779786633841679600,12.8746796875,-0.04132080078125,-0.0158538818359375,-0.9742279052734375
1779786633851761700,12.88476171875,-0.0306854248046875,-0.01611328125,-0.9688720703125
1779786633861843700,12.89484375,-0.026031494140625,-0.01910400390625,-0.971832275390625
1779786633871925500,12.904925537109374,-0.0213165283203125,-0.017974853515625,-0.974334716796875
1779786633882007600,12.915007568359375,-0.0160675048828125,-0.01123046875,-0.9813385009765625
1779786633892089600,12.925089599609375,-0.0110931396484375,-0.0052947998046875,-0.983673095703125
1779786633902171600,12.935171630859376,-0.008941650390625,-0.002349853515625,-0.98193359375
1779786633912253700,12.945253662109375,-0.0006256103515625,-0.002044677734375,-0.9793853759765625
1779786633922335700,12.955335693359375,0.00390625,-0.0009613037109375,-0.9727935791015625
1779786633932418600,12.96541845703125,0.0029754638671875,-0.00042724609375,-0.97320556640625
1779786633942500600,12.97550048828125,-0.0004119873046875,-0.00115966796875,-0.978424072265625
1779786633952582700,12.985582763671875,-0.0052032470703125,-0.0007476806640625,-0.9856414794921875
1779786633962664700,12.995664794921876,-0.01263427734375,0.002166748046875,-0.99200439453125
1779786633972746500,13.00574658203125,-0.0162353515625,0.001434326171875,-1.000152587890625
