time,seconds_elapsed,z,y,x
1779786621036473600,0.0694736328125,-6.63117813565433,-7.161295065936446,-0.9558841360345482
1779786621046555400,0.079555419921875,-6.6113359555870295,-7.178239186474681,-0.9661813659042119
1779786621056636700,0.08963671875,-6.586265227216482,-7.199411153841019,-0.9797831172119825
1779786621066718500,0.099718505859375,-6.560869504675269,-7.221202714410424,-0.9897525764320045
1779786621076800500,0.109800537109375,-6.537984888172149,-7.240223056700826,-1.002154450430721
1779786621086881300,0.11988134765625,-6.519266743698716,-7.2560162536382675,-1.0098391597144305
1779786621096963300,0.12996337890625,-6.502914159312844,-7.268941201663017,-1.0222446869749575
1779786621107045400,0.14004541015625,-6.488415678361058,-7.2807245784372085,-1.0304848381843417
1779786621117126400,0.15012646484375,-6.474677660387754,-7.2909718316853045,-1.0443482361029832
1779786621127208400,0.16020849609375,-6.460255751803517,-7.302277654075622,-1.0546144132472575
1779786621137290500,0.17029052734375,-6.442709573718905,-7.315068746587634,-1.0731490909125656
1779786621147371500,0.18037158203125,-6.423205831825733,-7.330290281116962,-1.0861218966670334
1779786621157453600,0.19045361328125,-6.402476347529888,-7.346142514765262,-1.1013037567730992
1779786621167534600,0.20053466796875,-6.383568817964195,-7.362100546875595,-1.104498753422126
1779786621177616600,0.21061669921875,-6.368347867956757,-7.3749325559198855,-1.1067514277197419
1779786621187698700,0.22069873046875,-6.35909254835546,-7.38443571280241,-1.0965544433541596
1779786621197779500,0.230779541015625,-6.354924907281995,-7.389189629331231,-1.0886637631695717
1779786621207861500,0.240861572265625,-6.355661989384889,-7.390559164118766,-1.0749796673405916
1779786621217943600,0.250943603515625,-6.358291753366589,-7.388722011819482,-1.072054792869836
1779786621228024600,0.261024658203125,-6.359883406472206,-7.388124630448222,-1.066715477668494
1779786621238106400,0.2711064453125,-6.357483359593153,-7.390145907142758,-1.0670276854228227
1779786621248188400,0.2811884765625,-6.35142654377222,-7.396105107808113,-1.0617888349212705
1779786621258269400,0.29126953125,-6.342479851728678,-7.404862999281287,-1.0542055401854216
1779786621268351500,0.3013515625,-6.331345294252038,-7.415511234545708,-1.0462552387680857
1779786621278433500,0.31143359375,-6.319488267719746,-7.426523626947403,-1.0398106657385826
1779786621288514600,0.3215146484375,-6.309300051182508,-7.436140765598416,-1.032922732855752
1779786621298596600,0.3315966796875,-6.303265447193384,-7.442446003222465,-1.0243162325520068
1779786621308678700,0.3416787109375,-6.301502529174089,-7.445745044767857,-1.011107426084578
1779786621318759400,0.351759521484375,-6.302662805125117,-7.447467046254872,-0.9909923473600297
1779786621328841500,0.361841552734375,-6.305500658899545,-7.4485378903567785,-0.964540393764153
1779786621338923500,0.371923583984375,-6.308932386913895,-7.44931764255762,-0.9356457962565123
1779786621349004500,0.382004638671875,-6.3110407573699945,-7.450836230427027,-0.9089538233596831
1779786621359086600,0.392086669921875,-6.310588337427378,-7.454072728130221,-0.8852406470779329
1779786621369168600,0.402168701171875,-6.306999373024702,-7.4593848630636925,-0.8658677650228143
1779786621379249700,0.412249755859375,-6.300871245533227,-7.4661735002905125,-0.8518547295004129
1779786621389331500,0.42233154296875,-6.294667714717984,-7.472431976163387,-0.8427959553845227
1779786621399413500,0.43241357421875,-6.292251885747909,-7.475287950116395,-0.835476499216631
1779786621409494500,0.44249462890625,-6.295156959539652,-7.473857625052332,-0.826340860472247
1779786621419576300,0.452576416015625,-6.303117563155293,-7.468519771155715,-0.8138280003797262
1779786621429658400,0.462658447265625,-6.3147793593764305,-7.460501884394883,-0.7967747203785925
1779786621439739400,0.472739501953125,-6.329636736768483,-7.450280934631824,-0.7742051611740142
1779786621449821400,0.482821533203125,-6.346221960866451,-7.438723183307051,-0.7491636588979512
1779786621459903500,0.492903564453125,-6.364061568939685,-7.425885913565755,-0.7247980831220746
1779786621469984500,0.502984619140625,-6.383945250061154,-7.410960731634497,-0.7023471087958664
1779786621480066600,0.513066650390625,-6.402887266418338,-7.39653999209404,-0.6816252232845872
1779786621490148600,0.523148681640625,-6.4160676505088805,-7.387002932941913,-0.6608015578992664
1779786621500229600,0.533229736328125,-6.422796081981063,-7.382765149241686,-0.642537806129828
1779786621510311700,0.543311767578125,-6.422777961802482,-7.384190213608742,-0.626136633361876
1779786621520393700,0.553393798828125,-6.419856521397828,-7.387861011075973,-0.6126461969414726
1779786621530474500,0.563474609375,-6.419457877469062,-7.389005504935979,-0.6029525955207645
1779786621540556500,0.573556640625,-6.423743591964245,-7.385881819957494,-0.5955255507925525
1779786621550638300,0.583638427734375,-6.434965827724337,-7.376419579607248,-0.5916404895201325
1779786621560719600,0.5937197265625,-6.451938589835167,-7.361959677100181,-0.5868658955294639
1779786621570801400,0.603801513671875,-6.473250257933139,-7.344354462304711,-0.5725935514837504
1779786621580882400,0.61388232421875,-6.493738334688544,-7.328086049070954,-0.5485459921484813
1779786621590964500,0.623964599609375,-6.498887972536683,-7.325832717186212,-0.5167342650851234
1779786621601046500,0.634046630859375,-6.491312568846345,-7.334474288803339,-0.48859446800015865
1779786621611127600,0.64412744140625,-6.476809411719441,-7.348252638787031,-0.4738206772383302
1779786621621209600,0.654209716796875,-6.457022176709771,-7.365352826669811,-0.4783647504087537
1779786621631291600,0.664291748046875,-6.431676723051071,-7.385992879116535,-0.5010244355821982
1779786621641372400,0.674372314453125,-6.402443614304065,-7.409218856403231,-0.5315693210475146
1779786621651454500,0.684454345703125,-6.370866572779416,-7.434470786559581,-0.5577568150209262
1779786621661536500,0.69453662109375,-6.339789881992339,-7.459497675788402,-0.5773583912653848
1779786621671617500,0.704617431640625,-6.313434959030151,-7.480434080833196,-0.5949959008952602
1779786621681699600,0.714699462890625,-6.297959157478809,-7.491825827941298,-0.6153430713426321
1779786621691781600,0.72478173828125,-6.297306246528029,-7.4904042707055805,-0.6388705157939344
1779786621701862700,0.734862548828125,-6.3068485663771625,-7.48029671818912,-0.662726607677713
1779786621711944700,0.74494482421875,-6.316082843190431,-7.470490778967737,-0.685022245311737
1779786621722026500,0.755026611328125,-6.318834187725186,-7.466206233516335,-0.7060419447258114
1779786621732107500,0.765107421875,-6.317437764930725,-7.465402515918016,-0.726721379334852
1779786621742189300,0.775189208984375,-6.3185220530360935,-7.462863937351107,-0.7431887492068111
1779786621752271400,0.785271240234375,-6.3255959369450805,-7.456160640320181,-0.7502588337235152
1779786621762352400,0.795352294921875,-6.333800286188722,-7.449325825864076,-0.7489268544673919
1779786621772434400,0.805434326171875,-6.338227454981207,-7.446051334238052,-0.7440207430515438
1779786621782516500,0.8155166015625,-6.338823667308688,-7.445773686340451,-0.7417229144379496
1779786621792597500,0.825597412109375,-6.338441389992833,-7.445850258708,-0.7442181653197855
1779786621802679600,0.835679443359375,-6.339878729319572,-7.444076234772801,-0.7496955007523298
1779786621812761600,0.84576171875,-6.344190162777901,-7.440019068336486,-0.753499203884229
1779786621822842600,0.855842529296875,-6.3527288585424415,-7.432680980533361,-0.7539658715479075
1779786621832924700,0.865924560546875,-6.366528835836053,-7.421023275965452,-0.7524024946887046
1779786621843007000,0.876007080078125,-6.381260541021824,-7.408571206149459,-0.7503062530618161
1779786621853088300,0.886088134765625,-6.388496922016143,-7.403191851198673,-0.7417801245179027
1779786621863170000,0.896170166015625,-6.383010599559545,-7.409689981046318,-0.723917939286679
1779786621873252000,0.906252197265625,-6.3634484054774045,-7.4283566875934595,-0.704573698804155
1779786621883333000,0.9163330078125,-6.333735988780856,-7.454945419311523,-0.6913543709427118
1779786621893415200,0.926415283203125,-6.3016708714783185,-7.482644742619991,-0.6850920226123184
1779786621903496000,0.936495849609375,-6.2724839399605985,-7.507240839216113,-0.6838632114697247
1779786621913578000,0.946577880859375,-6.2479819513887165,-7.527502706000209,-0.6854320682216435
1779786621923660000,0.956659912109375,-6.2266305358022445,-7.544925549966097,-0.688146222551167
1779786621933741000,0.966740966796875,-6.206518891143799,-7.561370488810539,-0.689339450923726
1779786621943823000,0.976822998046875,-6.1860132787317035,-7.578327468830347,-0.6874390241298824
1779786621953905200,0.9869052734375,-6.161033151254058,-7.599199576467275,-0.6813366156015545
1779786621963986200,0.996986083984375,-6.132262983843684,-7.62304514695704,-0.67447228279002
1779786621974068200,1.007068115234375,-6.100492465573549,-7.648877507349848,-0.6701079501006751
1779786621984150300,1.017150390625,-6.066638711288571,-7.675708815652132,-0.6706498749576508
1779786621994231300,1.027231201171875,-6.031892392078042,-7.70258688570559,-0.6758713359329849
1779786622004313300,1.037313232421875,-5.998228607407212,-7.728169070729613,-0.6833959592841565
1779786622014395100,1.04739501953125,-5.968178337058425,-7.750708234795928,-0.6912049525346606
1779786622024476200,1.05747607421875,-5.943824232524633,-7.768724368479847,-0.6987601171545684
1779786622034558000,1.067557861328125,-5.92616933336854,-7.781497340813279,-0.7065482137475162
1779786622044640000,1.077639892578125,-5.913963347268104,-7.790064678150415,-0.7143570608675479
1779786622054721000,1.087720947265625,-5.906205572748184,-7.795286212190986,-0.7215425884574651
1779786622064803000,1.097802978515625,-5.90345247464776,-7.796917028263211,-0.7264404435016214
1779786622074885000,1.107885009765625,-5.9080409714818,-7.793382424396276,-0.7270691698592155
1779786622084966100,1.117966064453125,-5.921655655336379,-7.783440291574597,-0.7228009910207241
1779786622095048200,1.128048095703125,-5.941903493595123,-7.7687991872817275,-0.7140865733630954
1779786622105130200,1.138130126953125,-5.9645379347294565,-7.752599163109064,-0.7013331825129687
1779786622115211300,1.148211181640625,-5.9858729837030165,-7.7377148977100845,-0.6837220494333655
1779786622125293300,1.158293212890625,-6.003015257161855,-7.726261775803565,-0.6626233664989472
1779786622135374000,1.1683740234375,-6.016402562001347,-7.71776867274642,-0.639794352640584
1779786622145456000,1.1784560546875,-6.028154959115386,-7.710410126677155,-0.6175040487688035
1779786622155538200,1.1885380859375,-6.038863400134444,-7.703639025107026,-0.5970402662044391
1779786622165619200,1.198619140625,-6.049398822674155,-7.696808886826038,-0.5781782928135246
1779786622175701200,1.208701171875,-6.059239248687028,-7.690284453493356,-0.5617170238887891
1779786622185783000,1.218782958984375,-6.063720193493366,-7.68766579542756,-0.5490771398831159
1779786622195864300,1.2288642578125,-6.04668605658412,-7.701191047433018,-0.5473820629356428
1779786622205946000,1.238946044921875,-6.017152503585815,-7.7241458065629,-0.549399503705278
1779786622216028200,1.249028076171875,-5.994540274283289,-7.741435964059829,-0.5532121573286131
1779786622226109000,1.25910888671875,-5.9880135028630495,-7.745988805058598,-0.5601205119449645
1779786622236191000,1.26919091796875,-5.993451310002803,-7.741215014785528,-0.5678973199589178
1779786622246273000,1.27927294921875,-6.000481939291953,-7.735216066631675,-0.5753573171086609
1779786622256354000,1.28935400390625,-5.9991521519929165,-7.735568533331155,-0.5844082732442766
1779786622266436000,1.29943603515625,-5.986506020909547,-7.744304797494411,-0.5982215484108776
1779786622276518100,1.30951806640625,-5.967250700819492,-7.757609684747457,-0.6179019620452075
1779786622286599200,1.31959912109375,-5.950239944785833,-7.768727291089296,-0.6418015277445316
1779786622296681200,1.32968115234375,-5.942294538739323,-7.772440174132585,-0.6698384124442934
1779786622306763300,1.33976318359375,-5.946010344392061,-7.766935731497407,-0.7000419736586511
1779786622316844300,1.34984423828125,-5.960954815545678,-7.7527692589789625,-0.7293604226015508
1779786622326926300,1.35992626953125,-5.9836295886904,-7.732350740328431,-0.7598065604001283
1779786622337008000,1.370008056640625,-6.008963351911306,-7.709215363934636,-0.7941971980407834
1779786622347089200,1.380089111328125,-6.032370530983806,-7.686959692984819,-0.8315938125643879
1779786622357171000,1.3901708984375,-6.051361647179722,-7.6678241998821495,-0.8694167627412825
1779786622367253000,1.4002529296875,-6.065903382751345,-7.652338461458682,-0.9038299044746905
1779786622377334000,1.410333984375,-6.076017949530482,-7.640446363613009,-0.9359298738949
1779786622387416000,1.420416015625,-6.080913904878496,-7.632148490867018,-0.971171648472175
1779786622397497000,1.4304970703125,-6.078016429871321,-7.629734999984502,-1.007598760376498
1779786622407579100,1.4405791015625,-6.063541329795122,-7.637213957563042,-1.0377014915648848
1779786622417661200,1.4506611328125,-6.0396279547661536,-7.653149777841567,-1.0595191364236176
1779786622427742200,1.4607421875,-6.015617549103498,-7.668463666829466,-1.0850833473995327
1779786622437824300,1.47082421875,-5.996297931605577,-7.6789207634359595,-1.1175710009630768
1779786622447906000,1.480906005859375,-5.981875438499451,-7.684513468876481,-1.1557738173030316
1779786622457987000,1.490987060546875,-5.972264729589224,-7.686873768267035,-1.1892961476765573
1779786622468069000,1.501069091796875,-5.96594897057116,-7.68774119875133,-1.2151009624753146
1779786622478151200,1.511151123046875,-5.957768002203107,-7.689353310123085,-1.2446839806385337
1779786622488232200,1.521232177734375,-5.948158462336659,-7.68971805178225,-1.287651600227505
1779786622498314200,1.531314208984375,-5.94095890622139,-7.6841890592277045,-1.3522697644799946
1779786622508396000,1.54139599609375,-5.935609361886978,-7.671115058121084,-1.4466931382790207
1779786622518477300,1.551477294921875,-5.926312541231512,-7.653689291545748,-1.5717024967387319
1779786622528559000,1.56155908203125,-5.90897269937396,-7.636869674170017,-1.712500375960767
1779786622538641200,1.57164111328125,-5.886664421454071,-7.622389313396811,-1.8484443854108452
1779786622548722000,1.581721923828125,-5.866832762780785,-7.605026090663671,-1.9784424920685588
1779786622558804000,1.591803955078125,-5.860046463641524,-7.574411756691336,-2.1115236594334243
1779786622568886000,1.601885986328125,-5.881610645195842,-7.519075653916597,-2.245118475408852
1779786622578967000,1.611967041015625,-5.949712121519446,-7.428283622357249,-2.364724075128883
1779786622589049000,1.622049072265625,-6.071144206014275,-7.300395493590831,-2.4527155161842704
1779786622599131100,1.632131103515625,-6.240416484570503,-7.142080662378668,-2.4936457847267386
1779786622609212200,1.642212158203125,-6.432474595430493,-6.964072704181075,-2.5090511513903735
1779786622619294200,1.652294189453125,-6.622073038178682,-6.7797489869654175,-2.52062059315294
1779786622629375200,1.662375244140625,-6.798957545304298,-6.602170652356744,-2.5210914255350825
1779786622639457300,1.672457275390625,-6.965299615627527,-6.429716821154952,-2.512714642333984
1779786622649539300,1.682539306640625,-7.12544224678874,-6.256949101698398,-2.499809275792539
1779786622659620000,1.6926201171875,-7.275650343912839,-6.085829149448871,-2.489574005243182
1779786622669702100,1.7027021484375,-7.416499076539278,-5.910538048994541,-2.4962904540166257
1779786622679784000,1.712783935546875,-7.5577429459631436,-5.721207901793718,-2.5136986849352714
1779786622689865200,1.722865234375,-7.712105240157246,-5.513838240033388,-2.508266723014414
1779786622699947000,1.732947021484375,-7.8821683768302195,-5.29682221352756,-2.4465238219372925
1779786622710029000,1.743029052734375,-8.054557326102257,-5.096027253982425,-2.3075962666317817
1779786622720110000,1.753110107421875,-8.209973513263463,-4.933959792238474,-2.1030372783780096
1779786622730192100,1.763192138671875,-8.33428144545555,-4.802550503608584,-1.909357703796029
1779786622740274200,1.773274169921875,-8.426589142274857,-4.694102403849363,-1.768724221355468
1779786622750355200,1.783355224609375,-8.495478554105759,-4.601649161079526,-1.6798970601283012
1779786622760437200,1.793437255859375,-8.552413324248791,-4.514720819211006,-1.6260101332485675
1779786622770519000,1.80351904296875,-8.609531049743294,-4.418291366286575,-1.5890437999010085
1779786622780600000,1.81360009765625,-8.670059460464119,-4.302259679530561,-1.578294003958255
1779786622790682000,1.82368212890625,-8.730732832613587,-4.167637566334009,-1.6048312977500259
1779786622800764200,1.83376416015625,-8.786879667249321,-4.017826067312061,-1.6787524201378226
1779786622810845200,1.84384521484375,-8.832676957306266,-3.856611715266108,-1.8112834062740206
1779786622820927200,1.85392724609375,-8.859870669180154,-3.6974110411301253,-2.0005561241991816
1779786622831009000,1.864009033203125,-8.864141186106204,-3.557718785062432,-2.2226164284825325
1779786622841090300,1.87409033203125,-8.849949579146504,-3.4313308317258953,-2.4646999684885142
1779786622851171600,1.884171630859375,-8.832077822369337,-3.292546922674775,-2.7062743899285793
1779786622861253400,1.89425341796875,-8.821783222848177,-3.1413235110282898,-2.911805730345845
1779786622871334400,1.90433447265625,-8.82423763026297,-2.9846035477921364,-3.0651848587214947
1779786622881416400,1.91441650390625,-8.839007913893461,-2.8260709821760654,-3.1710645692974326
1779786622891497500,1.92449755859375,-8.854997510185838,-2.6684727748006583,-3.261695565076172
1779786622901579300,1.934579345703125,-8.864228279867767,-2.5165929450720546,-3.3559806994482875
1779786622911661300,1.944661376953125,-8.857954021903872,-2.3735076855652033,-3.4746938803732395
1779786622921742300,1.954742431640625,-8.833421053671836,-2.2468124198451638,-3.618409985129535
1779786622931824400,1.964824462890625,-8.794106695893406,-2.147269949466735,-3.7713790713995694
1779786622941906400,1.974906494140625,-8.746937532961368,-2.0817903460793197,-3.915050460231304
1779786622951987500,1.984987548828125,-8.695223712337016,-2.0400458385445175,-4.049899660181999
1779786622962069200,1.9950693359375,-8.640878374165297,-2.0020633138917385,-4.182983311764896
1779786622972151300,2.0051513671875,-8.581161279827356,-1.9366700736135243,-4.3339775908306235
1779786622982232300,2.015232421875,-8.5175401637882,-1.8221392929397522,-4.5057402248978615
1779786622992314400,2.025314453125,-8.45591694356799,-1.6762836919367312,-4.675246896731853
1779786623002396400,2.035396484375,-8.394106676343084,-1.5278504955306649,-4.834773441821336
1779786623012477400,2.0454775390625,-8.321099892321229,-1.403614751791954,-4.995953599336743
1779786623022559500,2.0555595703125,-8.233098952785134,-1.3136464577056466,-5.163410352903604
1779786623032641500,2.0656416015625,-8.121771498197317,-1.2603221331447363,-5.349654224526882
1779786623042722600,2.07572265625,-7.96460174536705,-1.238903935932368,-5.585751383599638
1779786623052804400,2.085804443359375,-7.749505288746953,-1.2312718336187303,-5.88213554585278
1779786623062886400,2.095886474609375,-7.488452552115917,-1.2195769388455897,-6.213380593606829
1779786623072967200,2.10596728515625,-7.202270050403476,-1.1917479978080838,-6.548086010947823
1779786623083049200,2.11604931640625,-6.899411723700165,-1.1365554682224988,-6.875808729794621
1779786623093131300,2.12613134765625,-6.5851300857067105,-1.0476903861377387,-7.190882394948601
1779786623103212300,2.13621240234375,-6.272063668721914,-0.9268727802794426,-7.481477452406287
1779786623113294300,2.14629443359375,-5.966385023900866,-0.7876387163080275,-7.742884409302473
1779786623123376400,2.15637646484375,-5.659019448906183,-0.6433476612079888,-7.98323162703514
1779786623133457400,2.16645751953125,-5.351521187442541,-0.49853342248406257,-8.202624904066324
1779786623143539500,2.17653955078125,-5.05272996404767,-0.3511471778476611,-8.397439620158076
1779786623153621500,2.18662158203125,-4.786253741063177,-0.20680979938786476,-8.556832309734821
1779786623163702500,2.19670263671875,-4.5767654797136785,-0.0739294472581474,-8.672838862049579
1779786623173784600,2.20678466796875,-4.42597578330934,0.048153735256288195,-8.750930986511706
1779786623183866600,2.21686669921875,-4.298445674200356,0.15690706503977997,-8.81300896476209
1779786623193947400,2.226947509765625,-4.1640822119399905,0.24389462628224864,-8.87532075176835
1779786623204029400,2.237029541015625,-3.9993732957765458,0.3109717097278684,-8.94866948109567
1779786623214111200,2.247111328125,-3.7810827192902563,0.36364962614402174,-9.04110343464315
1779786623224192300,2.257192138671875,-3.518490936523676,0.40844855281338094,-9.144602972084284
1779786623234274300,2.2672744140625,-3.2646362947031853,0.4567629402577877,-9.23601167423725
1779786623244356400,2.2773564453125,-3.042985009612143,0.503402197564207,-9.308985725033283
1779786623254437400,2.287437255859375,-2.8420553177714347,0.5371154108673334,-9.370411376854777
1779786623264519400,2.29751953125,-2.6496555538669226,0.5569656281106173,-9.425470416253805
1779786623274601500,2.3076015625,-2.4753175163537264,0.5716486353164538,-9.471873270988464
1779786623284682200,2.31768212890625,-2.3280771829940377,0.5912810085579753,-9.507935348972678
1779786623294764300,2.327764404296875,-2.2002571510277686,0.6202756323739886,-9.536482813543081
1779786623304846300,2.337846435546875,-2.0621207460999487,0.6575555617153644,-9.56481342049241
1779786623314927400,2.34792724609375,-1.8834907104812562,0.6949122826199978,-9.598956513112784
1779786623325009400,2.358009521484375,-1.665245288310945,0.7232952773436904,-9.637125207987427
1779786623335091500,2.368091552734375,-1.4268323996417223,0.7434612094726413,-9.67376888525188
1779786623345172500,2.37817236328125,-1.1944193359091877,0.7588304088443517,-9.704015554955602
1779786623355254500,2.388254638671875,-0.9935028688762336,0.7708355386104434,-9.725694887322186
1779786623365336300,2.39833642578125,-0.8324150658193975,0.7811999884974211,-9.739978848740458
1779786623375417300,2.408417236328125,-0.7000540294226258,0.790318603041768,-9.749650347927211
1779786623385499400,2.41849951171875,-0.5897984418500214,0.7967807117279618,-9.756416188800335
1779786623395581400,2.42858154296875,-0.49673448330331593,0.8006160521071404,-9.761283502575754
1779786623405662200,2.438662109375,-0.41441363523025065,0.7986707632582635,-9.765284554910659
1779786623415744300,2.448744140625,-0.32838523787613955,0.7887537648778409,-9.769362179613113
1779786623425826300,2.458826416015625,-0.2302253626962192,0.7739116581201553,-9.773352710554002
1779786623435907300,2.4689072265625,-0.13400565266548656,0.7525466523997485,-9.776815418228507
1779786623445989400,2.4789892578125,-0.0472807746469276,0.7282545802514999,-9.77945745716989
1779786623456071400,2.489071533203125,0.027098037513648157,0.7000439464200288,-9.781594469198584
1779786623466152400,2.49915234375,0.08827985694217495,0.6623243835523724,-9.7838606605649
1779786623476234500,2.509234375,0.14108462374154476,0.6173126909151673,-9.786185304120183
1779786623486316500,2.519316650390625,0.1934041917067021,0.5710534093696624,-9.788100197830795
1779786623496397600,2.5293974609375,0.24751778521547094,0.5297553304281085,-9.789202606114744
1779786623506479600,2.539479736328125,0.3019876448160037,0.4975668424742296,-9.789363349634408
1779786623516561200,2.54956103515625,0.3465369806384668,0.474966376674734,-9.789008544847368
1779786623526642400,2.559642333984375,0.36885066538583483,0.45750067994780835,-9.78902608050406
1779786623536724200,2.56972412109375,0.36947106230650095,0.44074762500226494,-9.789771930435299
1779786623546806300,2.57980615234375,0.36289435079731047,0.42318376513049005,-9.790790752089023
1779786623556888300,2.589888427734375,0.3614407544555142,0.40512733596879985,-9.791609667256473
1779786623566969300,2.59996923828125,0.37002935377638785,0.38896205431595443,-9.791945182821154
1779786623577051400,2.610051513671875,0.38608123818263407,0.3754600005229935,-9.791851659318803
1779786623587133400,2.620133544921875,0.4042011245019734,0.364429853268899,-9.791538355585931
1779786623597214500,2.63021435546875,0.4216282427841797,0.3540536033462733,-9.791182966277002
1779786623607296500,2.640296630859375,0.4344258746348321,0.342965661490336,-9.791017546582221
1779786623617378600,2.650378662109375,0.4366521358495578,0.332641982005164,-9.791275320735574
1779786623627459300,2.660459228515625,0.42689160667248066,0.32445345138516274,-9.791980254134534
1779786623637541400,2.670541259765625,0.4071445940753445,0.31825339116863904,-9.793023625707626
1779786623647623400,2.68062353515625,0.37941162422560154,0.3134520187688991,-9.794294376295804
1779786623657704400,2.690704345703125,0.34472028660532084,0.3101923593858257,-9.795679108652472
1779786623667786200,2.7007861328125,0.3078294296467677,0.30801380977034565,-9.796976747247577
1779786623677868300,2.710868408203125,0.2773058244314976,0.3038462600284256,-9.798018365254997
1779786623687949300,2.72094921875,0.2639937219863757,0.2956626613118686,-9.798637373936176
1779786623698031400,2.73103125,0.2742836818650365,0.2853204963219352,-9.798661339333654
1779786623708113400,2.741113525390625,0.30312786435969175,0.2759572958993725,-9.798078571009635
1779786623718194400,2.7511943359375,0.33742278654091057,0.268090288851317,-9.797175484690069
1779786623728276500,2.7612763671875,0.36304212523754686,0.25983099455004555,-9.796482826250791
1779786623738358500,2.771358642578125,0.3727729533961043,0.24976275113066657,-9.796379365876316
1779786623748439300,2.781439208984375,0.3673580156752839,0.23806606625923885,-9.79687445591688
1779786623758521300,2.791521240234375,0.35242530802469696,0.22724724193457513,-9.797681096124649
1779786623768603400,2.801603271484375,0.33770280905868855,0.21762781999493017,-9.798417009183764
1779786623778685400,2.811685546875,0.33598723731245844,0.20859768745163454,-9.798673614293337
1779786623788766500,2.821766357421875,0.34878771870732306,0.20115261387638747,-9.798381937870383
1779786623798848500,2.8318486328125,0.3703638829603791,0.19544753410257398,-9.797703892478346
1779786623808930300,2.841930419921875,0.40010121490247547,0.19126451279688625,-9.796618435329199
1779786623819011300,2.85201123046875,0.4331747785951942,0.18860524872606618,-9.795261175501347
1779786623829093400,2.86209326171875,0.4616810709049925,0.18617617668192832,-9.794007376047968
1779786623839175400,2.872175537109375,0.4790195975882932,0.18572180224424226,-9.79318320018351
1779786623849256200,2.882256103515625,0.48655171012617643,0.18599977893540634,-9.792806768086551
1779786623859338200,2.892338134765625,0.489035087907128,0.18737068369612098,-9.792658299526572
1779786623869420300,2.902420166015625,0.4933320179160684,0.18864340704567728,-9.7924186455518
1779786623879501300,2.912501220703125,0.5041559385409579,0.1895162078248337,-9.791848152187466
1779786623889583400,2.922583251953125,0.5143154404403641,0.19086564967241137,-9.791294609957934
1779786623899665400,2.93266552734375,0.5159325567808002,0.1935097892393358,-9.791157247313857
1779786623909747500,2.94274755859375,0.5078852612623944,0.19651761101949958,-9.791519066363572
1779786623919828200,2.952828125,0.49509292664136734,0.19767156682759524,-9.792150350004434
1779786623929910300,2.96291015625,0.48552127109989524,0.195723410168197,-9.792667651876807
1779786623939992000,2.972991943359375,0.48486865241006016,0.19041876442143693,-9.792805014520884
1779786623950073300,2.9830732421875,0.4953504815990105,0.18281923093684016,-9.792425075292586
1779786623960155100,2.993155029296875,0.5129687385391444,0.1740068693300709,-9.791678640839457
1779786623970237200,3.0032373046875,0.5304774341575801,0.166979820237495,-9.790867908978461
1779786623980318200,3.013318115234375,0.5403765315551311,0.16300472432775423,-9.790393861725926
1779786623990400300,3.023400146484375,0.5405064415451138,0.1611021786420606,-9.790418996167181
1779786624000482300,3.033482421875,0.5350576015546917,0.16018871705895288,-9.790732884421944
1779786624010564400,3.043564453125,0.5262964952111244,0.15863273805491626,-9.791231481593847
1779786624020645400,3.053645263671875,0.5143189475717023,0.15699965696036813,-9.791894913938641
1779786624030727200,3.06372705078125,0.5030327066646888,0.15684950789995492,-9.792484696525335
1779786624040809200,3.073809326171875,0.49696445613428947,0.1584244290664792,-9.792768189641833
1779786624050890200,3.08389013671875,0.49375510216634716,0.16316070034075528,-9.792853529837727
1779786624060972300,3.09397216796875,0.4872886095659807,0.17103737026629967,-9.793044083973765
1779786624071054300,3.104054443359375,0.47569363150335847,0.18221078018229453,-9.793411163720489
1779786624081135400,3.11413525390625,0.4593737438106909,0.19458839652258902,-9.793951846468447
1779786624091217200,3.124217041015625,0.4411537581177428,0.20589513222835956,-9.794559164711833
1779786624101299200,3.13429931640625,0.4245713835639879,0.21507135871145874,-9.795094002240896
1779786624111381200,3.14438134765625,0.41313663756437596,0.22168686786107716,-9.795435363024472
1779786624121462300,3.154462158203125,0.4077833669029176,0.22637135414918882,-9.795552851924299
1779786624131544300,3.16454443359375,0.411044743319042,0.22947058053985236,-9.79534476213157
1779786624141626400,3.17462646484375,0.42175179609861224,0.2324141597110778,-9.794818692430853
1779786624151707100,3.18470703125,0.43669045856595035,0.23496727825999258,-9.794103822159766
1779786624161789200,3.1947890625,0.45215727309323844,0.23690169865498317,-9.793355049619079
1779786624171871200,3.204871337890625,0.4635247625429183,0.23717463384484871,-9.792817289480567
1779786624181952300,3.2149521484375,0.4670037637650966,0.23437903004325925,-9.792719089803098
1779786624192034300,3.225034423828125,0.4637352634884417,0.22893464703224597,-9.793003167441487
1779786624202116400,3.235116455078125,0.4588694110177457,0.22188052726965396,-9.793395381629466
1779786624212198100,3.2451982421875,0.4577896894896403,0.21446685347966848,-9.79361165472865
1779786624222279400,3.255279541015625,0.46208534085694697,0.20753471612893043,-9.79355904775858
1779786624232361200,3.265361328125,0.469578582689166,0.202177956602443,-9.79331354856491
1779786624242443300,3.275443359375,0.47544857070110735,0.19907208127528428,-9.793094352856277
1779786624252524300,3.285524169921875,0.4765566780734807,0.19789072600360957,-9.793065126761794
1779786624262606000,3.295606201171875,0.47559170549884433,0.19819778265878557,-9.793106043294072
1779786624272688000,3.305688232421875,0.4775315875202417,0.19767657179627565,-9.793021287620068
1779786624282770200,3.315770263671875,0.4837503524372354,0.19641387665038929,-9.792740717113018
1779786624292851200,3.325851318359375,0.49388990752715617,0.19500048445481805,-9.792263162729144
1779786624302933200,3.335933349609375,0.5055320491997525,0.19373999953232704,-9.791695007452368
1779786624313015300,3.346015380859375,0.5167600205808878,0.19321190227130428,-9.791120422434807
1779786624323096300,3.356096435546875,0.5262605836475268,0.19368704550238325,-9.790603120562434
1779786624333178400,3.366178466796875,0.5303421173401177,0.19478539866572245,-9.790362297543883
1779786624343260400,3.376260498046875,0.5281601701911538,0.19529044384472072,-9.790470434093475
1779786624353342200,3.38634228515625,0.5251078699484467,0.19483966786991805,-9.790643452572821
1779786624363423200,3.39642333984375,0.5282807278309017,0.1933803541733883,-9.790500829231739
1779786624373505300,3.40650537109375,0.5370646305281669,0.19133372384188696,-9.790062437814473
1779786624383587300,3.41658740234375,0.5466226228704676,0.18844810366928577,-9.789590144127606
1779786624393668000,3.426668212890625,0.5539220226310193,0.18454092189660296,-9.789252874997258
1779786624403750100,3.436750244140625,0.557762294913642,0.17916081802714615,-9.78913655514121
1779786624413832200,3.446832275390625,0.5600969118736684,0.17200879084803164,-9.789131294444203
1779786624423914200,3.456914306640625,0.5616508633174002,0.16287099667917937,-9.789197345417737
1779786624433995300,3.466995361328125,0.560608660788089,0.15103873012880795,-9.789447520786522
1779786624444077300,3.477077392578125,0.5582339675460011,0.13758573050880804,-9.789780113741754
1779786624454159400,3.487159423828125,0.5586375799108296,0.12260511032957583,-9.78995663935244
1779786624464240400,3.497240478515625,0.5612932455187664,0.10765830108840017,-9.789980604749918
1779786624474322400,3.507322509765625,0.5614720726843923,0.09478085460034198,-9.79010452339053
1779786624484404200,3.517404296875,0.5573061486439779,0.08480492910691537,-9.790433609214425
1779786624494486300,3.527486328125,0.5500460945131257,0.07727166579156182,-9.790905902901292
1779786624504567000,3.537567138671875,0.541285572691448,0.07141423586709425,-9.791440155908465
1779786624514649000,3.547649169921875,0.5318679021352902,0.0670297097730916,-9.791987852919101
1779786624524731100,3.557731201171875,0.5232821158260107,0.06259719351863023,-9.792479435828328
1779786624534812200,3.567812255859375,0.5172370635081083,0.05870385760820936,-9.792824303743243
1779786624544894200,3.577894287109375,0.5135375148704275,0.05663417519468348,-9.793031224492191
1779786624554976300,3.587976318359375,0.5131310529613867,0.056396288485312834,-9.79305518988967
1779786624565058300,3.598058349609375,0.5154355670440942,0.05536571702829096,-9.792938870033622
1779786624575139300,3.608139404296875,0.5172579966982827,0.05424705172928516,-9.792849438184499
1779786624585221400,3.618221435546875,0.5174212975012138,0.054186759209679435,-9.792840085834264
1779786624595303400,3.628303466796875,0.5119074294505641,0.05486837566513568,-9.79312591703832
1779786624605385200,3.63838525390625,0.4995442434944212,0.05697519805154297,-9.793752524504065
1779786624615466200,3.64846630859375,0.48375944905914364,0.06051187514455523,-9.79452409339845
1779786624625548300,3.65854833984375,0.46977377646770324,0.0648380997466389,-9.795176419827342
1779786624635630300,3.66863037109375,0.46127077307105063,0.06805920351787935,-9.795559281665087
1779786624645711000,3.678711181640625,0.45943153841253365,0.06929143046026584,-9.795635854032636
1779786624655793200,3.688793212890625,0.4636983655441552,0.0688382068000501,-9.795438870155811
1779786624665875200,3.698875244140625,0.4738589999547228,0.06741307393433525,-9.794963653859496
1779786624675957200,3.708957275390625,0.4883750165631994,0.06601958288247696,-9.794260474026203
1779786624686038300,3.719038330078125,0.5024252422908321,0.06461000834549777,-9.79355729419291
1779786624696120300,3.729120361328125,0.5107959976099431,0.06283739548267331,-9.793135269388555
1779786624706202400,3.739202392578125,0.5129031624896452,0.06094207412221003,-9.793038823276758
1779786624716284200,3.7492841796875,0.5108516367873177,0.05841251454539597,-9.793161572873592
1779786624726365400,3.759365478515625,0.5072858705971389,0.05492236174154095,-9.79336790910065
1779786624736447200,3.769447265625,0.5070805938160047,0.0505631710181944,-9.793401226848363
1779786624746529300,3.779529296875,0.5140619040707126,0.045411971400631586,-9.793061035108567
1779786624756610000,3.789610107421875,0.5256606449929997,0.040132135868142356,-9.792468329912424
1779786624766692000,3.799692138671875,0.5379992810297757,0.03485168156443396,-9.791819510614872
1779786624776774100,3.809774169921875,0.5485889179747552,0.029774385150009765,-9.791248432728647
1779786624786856200,3.819856201171875,0.5566864458430558,0.02396460289270617,-9.790806534180044
1779786624796937200,3.829937255859375,0.5635270689854398,0.01769357235729112,-9.790428933039307
1779786624807019300,3.840019287109375,0.568053716097027,0.012580819895351305,-9.790177588626742
1779786624817101300,3.850101318359375,0.5702550255335868,0.009206423546074075,-9.79005191642046
1779786624827183400,3.860183349609375,0.5708300489425658,0.007293578516185516,-9.790020352238416
1779786624837264400,3.870264404296875,0.5707740079063922,0.006980827909984509,-9.790023274847865
1779786624847346700,3.8803466796875,0.5738091378185898,0.007870910900793388,-9.78984616471529
1779786624857428700,3.8904287109375,0.5838850530877709,0.009535348398119094,-9.78924819882214
1779786624867510800,3.9005107421875,0.6010278745358809,0.011985432976711308,-9.788207165336608
1779786624877591800,3.910591796875,0.62102126310952,0.01537822977824835,-9.78695395040512
1779786624887673900,3.920673828125,0.6379428064897656,0.019097428397892507,-9.785859725427628
1779786624897756000,3.930755859375,0.6473608423721045,0.0231295494412072,-9.785233702483772
1779786624907838000,3.940837890625,0.649759281815961,0.026890724039054473,-9.785064775657654
1779786624917918700,3.950918701171875,0.6508253036122769,0.02891373831623932,-9.784988203290105
1779786624928000800,3.961000732421875,0.6536238482896238,0.028873146010946947,-9.784800571763515
1779786624938082800,3.971082763671875,0.6574199526369572,0.02685067743974505,-9.784553319004177
1779786624948163800,3.981163818359375,0.6606687252998351,0.02331122386775678,-9.78434289112389
1779786624958245600,3.99124560546875,0.6646139557942747,0.01820085515914834,-9.784086870536207
1779786624968327700,4.00132763671875,0.6712158382773399,0.013083251850510715,-9.783642633900046
1779786624978409700,4.01140966796875,0.6808118610750883,0.010152644042001339,-9.782983877730368
1779786624988490800,4.02149072265625,0.6923297187808901,0.008400011667169747,-9.782177237522601
1779786624998572800,4.03157275390625,0.7031102751880883,0.008250440849602456,-9.781408591237664
1779786625008654800,4.04165478515625,0.7093320723123848,0.009843211625004187,-9.780956171295045
1779786625018737000,4.05173681640625,0.7090335277572274,0.01301701593059697,-9.780975460517405
1779786625028817700,4.061817626953125,0.7063261684946716,0.01750466218906804,-9.781165430131553
1779786625038899700,4.071899658203125,0.705695907767117,0.023338041092734782,-9.781198747879266
1779786625048981800,4.081981689453125,0.7068000696167349,0.030513378365489188,-9.78109704107046
1779786625059063600,4.0920634765625,0.7058711182035505,0.039530265551432964,-9.78113269690573
1779786625069144800,4.102144775390625,0.7028088080234826,0.050458527900208716,-9.78130337729752
1779786625079226600,4.1122265625,0.7014313821904361,0.06240020507522858,-9.781334356957673
1779786625089308700,4.12230859375,0.7062771417211741,0.07435218444855418,-9.780902395281196
1779786625099390700,4.132390625,0.717223556214571,0.08604080017795786,-9.780009830355644
1779786625109471700,4.1424716796875,0.728385586220026,0.09796574998046272,-9.779071672722697
1779786625119553800,4.1525537109375,0.7347824476502836,0.11001088296337984,-9.778464939001202
1779786625129635800,4.1626357421875,0.73429948643893,0.12123976765996776,-9.778367908367514
1779786625139718000,4.1727177734375,0.7281338034160435,0.1308906167843379,-9.778705762019753
1779786625149799000,4.182798828125,0.7188720540739596,0.13760008782772346,-9.779299051737786
1779786625159881000,4.192880859375,0.7116300470564514,0.1412131728915032,-9.779777190643548
1779786625169962800,4.202962646484375,0.7078598078027367,0.14261785205765626,-9.780030288621782
1779786625180044500,4.21304443359375,0.7052407113455236,0.14197411992717535,-9.780227857020497
1779786625190125800,4.223125732421875,0.7046105236832052,0.14006056879027745,-9.780301506778597
1779786625200207600,4.23320751953125,0.7101485032618046,0.13719983646376058,-9.77994085677266
1779786625210289700,4.24328955078125,0.7181868482887744,0.13342480230391957,-9.779405434721708
1779786625220371700,4.253371826171875,0.7235433338206261,0.12819499362534842,-9.779081025072932
1779786625230452700,4.26345263671875,0.7246927230514586,0.12160688393930903,-9.779080440551041
1779786625240534800,4.27353466796875,0.7223940907202661,0.11434150517936795,-9.779338214704394
1779786625250616800,4.283616943359375,0.7174133066330105,0.10616219904543832,-9.779797064387798
1779786625260699000,4.293698974609375,0.7144916470326483,0.0976005607967265,-9.780101600292324
1779786625270780000,4.30377978515625,0.7140605621390044,0.08876732079870998,-9.780217920148372
1779786625280862000,4.313862060546875,0.7151966534968465,0.08011908197877927,-9.780209152320026
1779786625290943700,4.32394384765625,0.7171206803619861,0.07244899030888918,-9.78012731925547
1779786625301025800,4.33402587890625,0.7171954260986297,0.06613045481184963,-9.7801653131783
1779786625311106600,4.3441064453125,0.7138202505771071,0.06124844579079654,-9.780443545597791
1779786625321188600,4.354188720703125,0.7105504351262003,0.05814040133943781,-9.780701319751143
1779786625331270700,4.364270751953125,0.7082474188808351,0.057626264105108564,-9.780870831099152
1779786625341352700,4.374352783203125,0.7056290530759841,0.05985456657987088,-9.781047356709838
1779786625351433700,4.384433837890625,0.7015146765597164,0.0640715540872421,-9.781318574866653
1779786625361515800,4.394515869140625,0.6965660411763935,0.07004522166936658,-9.781630125033855
1779786625371597800,4.404597900390625,0.6891969006478786,0.07747371856914832,-9.782094235414267
1779786625381679900,4.414679931640625,0.6772894591026007,0.08609585483344272,-9.782855867436528
1779786625391761000,4.424760986328125,0.6627757075164467,0.09543144572987221,-9.783761291843652
1779786625401843000,4.434843017578125,0.6491785593185574,0.1046304503003601,-9.784578453445434
1779786625411924700,4.4449248046875,0.6399488856151699,0.11259630547985434,-9.785098093405365
1779786625422006800,4.4550068359375,0.6372779128402472,0.11898815280827693,-9.785197462126613
1779786625432087600,4.465087646484375,0.6386321039281785,0.12470612859628162,-9.785039056694506
1779786625442169600,4.475169677734375,0.6407559642143548,0.1299255894107744,-9.784832720467447
1779786625452251600,4.485251708984375,0.6415184730194509,0.1353396229492966,-9.784709970870614
1779786625462333700,4.495333740234375,0.6388577293775975,0.14105958976498803,-9.784802909851074
1779786625472415700,4.505415771484375,0.6328269978459924,0.14569345097756012,-9.78512731949985
1779786625482496800,4.515496826171875,0.6245373814716935,0.14941706547741776,-9.785602535796166
1779786625492578800,4.525578857421875,0.6164026633981615,0.15160652007940226,-9.786084766355156
1779786625502660900,4.535660888671875,0.6125949051456525,0.1518624128029216,-9.78631915963292
1779786625512742700,4.54574267578125,0.6127287971910089,0.1509143730967771,-9.786326173895597
1779786625522824000,4.555823974609375,0.6132417151492089,0.14902227573986165,-9.786322666764258
1779786625532905700,4.56590576171875,0.6098128366790712,0.1464651842687279,-9.786575180220604
1779786625542987800,4.57598779296875,0.6022133579934016,0.14396996991951017,-9.78708371426463
1779786625553069800,4.58606982421875,0.5918918339326977,0.14187054082169195,-9.787744223999976
1779786625563150600,4.596150634765625,0.5800903004473075,0.1403952258384321,-9.788473122796416
1779786625573232600,4.606232666015625,0.5690478417009115,0.1396407816087827,-9.789130709922313
1779786625583314700,4.616314697265625,0.5584003370888531,0.14029104394474998,-9.78973452103436
1779786625593396700,4.626396728515625,0.5464386080730707,0.14136830865428782,-9.790393861725926
1779786625603477800,4.636477783203125,0.5330215291498228,0.14299175427081062,-9.791109901040793
1779786625613559800,4.646559814453125,0.5182326138840988,0.14505308898109942,-9.791872702106833
1779786625623641900,4.656641845703125,0.5019155757356435,0.14726635371693408,-9.792690448230504
1779786625633723600,4.6667236328125,0.4847542687827721,0.14891520776934922,-9.793529821664094
1779786625643805700,4.6768056640625,0.4700103251699358,0.14921532322708517,-9.794243522891401
1779786625653886700,4.68688671875,0.4596029494566843,0.1485376888270024,-9.794749134325981
1779786625663968800,4.69696875,0.45447855564765627,0.146847151057329,-9.79501333822012
1779786625674050800,4.70705078125,0.4532212490629405,0.14437108893315306,-9.795108615288138
1779786625684132900,4.7171328125,0.4540370589578524,0.14085323527161964,-9.7951220592916
1779786625694214000,4.7272138671875,0.45590270669925953,0.13666870699543504,-9.795094002240896
1779786625704296000,4.7372958984375,0.456326375471428,0.13284499312196857,-9.795126735466718
1779786625714378000,4.7473779296875,0.4525847047250718,0.12970729788444005,-9.795343008565903
1779786625724459800,4.757459716796875,0.44430400230959055,0.12692569520873948,-9.795758019107579
1779786625734541600,4.76754150390625,0.43396972836516795,0.1245268721723929,-9.796253109148145
1779786625744622600,4.77762255859375,0.4243689928596839,0.12245210259179584,-9.796700268393755
1779786625754704600,4.78770458984375,0.4177746360959485,0.12041858747019432,-9.79700831142962
1779786625764786700,4.79778662109375,0.4147777558349073,0.11843237295588478,-9.797159702599048
1779786625774868700,4.80786865234375,0.41532315129060293,0.11716041679130866,-9.797152103814483
1779786625784949800,4.81794970703125,0.4176389904849231,0.11726753042759373,-9.797051566049456
1779786625795031800,4.82803173828125,0.42092677998393774,0.1190245301627554,-9.796888484442233
1779786625805113900,4.83811376953125,0.42223789911512283,0.12335108812497927,-9.796779178848862
1779786625815196000,4.84819580078125,0.41854236906543374,0.12949908936070278,-9.796858089303969
1779786625825277700,4.858277587890625,0.41078017409872264,0.13638511341423726,-9.797094236147403
1779786625835359000,4.86835888671875,0.4030071289444342,0.14446278580459765,-9.797299403330683
1779786625845440800,4.878440673828125,0.3974350644331425,0.1532971491806209,-9.797393511354922
1779786625855523000,4.888523193359375,0.39367381220348174,0.16303981390744446,-9.797388250657916
1779786625865605000,4.898605224609375,0.3899224968459457,0.17323780292002483,-9.79736253169477
1779786625875686000,4.908685791015625,0.38777679005414245,0.18356787561336532,-9.797259071320294
1779786625885768000,4.918767822265625,0.38890294453985985,0.1935429243239574,-9.797022924476861
1779786625895850000,4.92885009765625,0.3936343204433098,0.2033446257616393,-9.79663597098589
1779786625905932000,4.93893212890625,0.39999037493914363,0.21226362608065827,-9.796189980784058
1779786625916014000,4.94901416015625,0.4064102153861895,0.21882106663379816,-9.795780815461278
1779786625926095000,4.95909521484375,0.41199152264986183,0.22268303929157554,-9.79546049746573
1779786625936177000,4.969177001953125,0.41670218455884606,0.2235171520281583,-9.795243055322766
1779786625946259000,4.979259033203125,0.42012054163496937,0.2220989557933062,-9.795129073554277
1779786625956341000,4.989341064453125,0.42057526313252747,0.21877826867168768,-9.795184603133798
1779786625966423000,4.999423095703125,0.41854404956586655,0.21472776943817734,-9.795362882310151
1779786625976504000,5.009504150390625,0.415438229037635,0.2103199264006689,-9.795587923237681
1779786625986586000,5.019586181640625,0.4124883297234773,0.20579247557148336,-9.795808287990093
1779786625996668200,5.029668212890625,0.41012291576638815,0.2014253116042353,-9.79599884212613
1779786626006750200,5.039750244140625,0.407527382847853,0.1966975524299778,-9.79620400930941
1779786626016831000,5.0498310546875,0.4035466061159968,0.1908148875995539,-9.79648516433835
1779786626026913000,5.0599130859375,0.3978045918652788,0.18386046535177156,-9.796852828606962
1779786626036994800,5.069994873046875,0.3921726503929123,0.17618366537988184,-9.797221077397465
1779786626047076900,5.080076904296875,0.38834187659099695,0.16874977078577502,-9.797504570513963
1779786626057159000,5.090158935546875,0.3872710690217092,0.16245733784437177,-9.797653039073943
1779786626067240000,5.100239990234375,0.3876148409580812,0.15757139243371784,-9.797719674569368
1779786626077322000,5.110322021484375,0.38874793664123863,0.1542838403967209,-9.797725519788264
1779786626087404000,5.120404052734375,0.39053058227431026,0.15261881152763962,-9.797681680646539
1779786626097486000,5.130486083984375,0.39335857224185017,0.1528273762444034,-9.797565360790491
1779786626107568000,5.140568115234375,0.3962040613334626,0.15490306827360764,-9.797419814839959
1779786626117649200,5.150649169921875,0.397719763126038,0.158597648475226,-9.797299987852572
1779786626127731200,5.160731201171875,0.39749804666675626,0.16410515985032542,-9.797217570266127
1779786626137813000,5.17081298828125,0.3935909562256187,0.17111259092697872,-9.797254395145178
1779786626147895000,5.18089501953125,0.3859895047785714,0.1793530709299259,-9.797409293445945
1779786626157977000,5.19097705078125,0.37705234774835406,0.1875400671799667,-9.7976045237571
1779786626168057900,5.201057861328125,0.36837928501442074,0.19473123905938117,-9.797793324327468
1779786626178140000,5.211139892578125,0.36209143691658974,0.20004620527075603,-9.7979219191432
1779786626188222000,5.221221923828125,0.35841095830556,0.20325190597688778,-9.797990892726183
1779786626198304000,5.231303955078125,0.3570226092197001,0.20429836455620823,-9.798020118820666
1779786626208386000,5.241385986328125,0.35758276385311033,0.2033026497834362,-9.798020703342557
1779786626218467000,5.251467041015625,0.3591561506496742,0.2003325296651572,-9.798023041430115
1779786626228549000,5.261549072265625,0.36042817987948655,0.19599548684153706,-9.798064542484283
1779786626238631000,5.271630859375,0.357851936183311,0.19134148702323436,-9.798250420445203
1779786626248713000,5.281712890625,0.3504034833408892,0.18667934043109416,-9.79861048592925
1779786626258794000,5.2917939453125,0.3398042017847299,0.18195570944268255,-9.799071089178323
1779786626268876000,5.3018759765625,0.3294378887342289,0.177771354696434,-9.799501881811022
1779786626278958000,5.3119580078125,0.3213766377557069,0.1746874720053747,-9.799824537894128
1779786626289040100,5.3220400390625,0.31463984031397846,0.17228621954992412,-9.800086403700709
1779786626299122200,5.3321220703125,0.30939094334244727,0.1704548211379908,-9.800285141143203
1779786626309203000,5.342202880859375,0.3072375281682238,0.16975772398561237,-9.8003646361202
1779786626319285000,5.352284912109375,0.30837793037500233,0.17029939311426132,-9.800319627934694
1779786626329367000,5.362366943359375,0.3100034126849845,0.17226293000588191,-9.8002342877388
1779786626339448800,5.37244873046875,0.31007859681304545,0.17511930581768972,-9.800181680768727
1779786626349531000,5.38253076171875,0.3090690909769386,0.17795798157602546,-9.800163560590148
1779786626359613000,5.392613037109375,0.30713410432636734,0.1807383330095559,-9.800173497462271
1779786626369694000,5.40269384765625,0.30400691221654413,0.18356968397796153,-9.800217921125888
1779786626379776000,5.41277587890625,0.30076550087621434,0.18675481682009995,-9.800258253136276
1779786626389858000,5.422858154296875,0.2977551035464741,0.1897141415497288,-9.800292739927768
1779786626399940000,5.432940185546875,0.2949143819615245,0.1934202660586685,-9.80030618393123
1779786626410022100,5.443022216796875,0.2929340400655754,0.19804564257068558,-9.80027286618352
1779786626420103200,5.453103271484375,0.29074348948504775,0.20377943698232992,-9.800222597301005
1779786626430185000,5.46318505859375,0.28664310496151446,0.20915676437281072,-9.800228442519902
1779786626440267000,5.47326708984375,0.28184257281199093,0.21412686266927047,-9.800261175745725
1779786626450349000,5.48334912109375,0.2776900745087303,0.21823203296577556,-9.80028923279643
1779786626460431000,5.49343115234375,0.2747257996093482,0.22154521263437343,-9.800297416102886
1779786626470511900,5.503511962890625,0.2732300080936402,0.2241655877332203,-9.800281049489975
1779786626480594000,5.513593994140625,0.2735336854816414,0.2255391959076747,-9.800238379392027
1779786626490676000,5.523676025390625,0.2747896951584145,0.22650826013553887,-9.800181096246838
1779786626500758000,5.533758056640625,0.2777467000667937,0.227395180771593,-9.800078804916144
1779786626510840000,5.543840087890625,0.28397010462628675,0.22735696765305474,-9.799902279305458
1779786626520921000,5.553921142578125,0.29127593412762504,0.22615924576846883,-9.79971347873509
1779786626531003000,5.5640029296875,0.29747022219048813,0.2235989120274782,-9.799587222006917
1779786626541085000,5.5740849609375,0.3017277700371109,0.21888066960023714,-9.799563256609439
1779786626551167000,5.5841669921875,0.30420765895303337,0.21209913796763866,-9.79963632184565
1779786626561249000,5.5942490234375,0.30619881450394165,0.20400358286071568,-9.799745042917133
1779786626571330000,5.604330078125,0.3085003146456554,0.19539244291447103,-9.799847918769716
1779786626581412000,5.614412109375,0.31070125875603405,0.18717158092744648,-9.799939688706397
1779786626591494100,5.624494140625,0.3110761199504137,0.18012944386359303,-9.800061269259452
1779786626601576200,5.634576171875,0.30852526642382144,0.17495353906303643,-9.800235456782579
1779786626611658000,5.644657958984375,0.3032838769053109,0.17178296446921304,-9.800452898925542
1779786626621740000,5.654739990234375,0.2947781335623003,0.1702057417477481,-9.800739899173378
1779786626631820800,5.66482080078125,0.28378742326945067,0.1694344833806157,-9.801078337347507
1779786626641902800,5.67490283203125,0.2728874599999748,0.1694318895647302,-9.801388133949041
1779786626651985000,5.68498486328125,0.2626934165101498,0.17001816502008585,-9.801657598540187
1779786626662067000,5.69506689453125,0.2499670597974211,0.1695758463463746,-9.801996621236205
1779786626672149000,5.70514892578125,0.22068665957627817,0.1596635972063057,-9.802865805286169
1779786626682230000,5.71522998046875,0.18816203500321133,0.15095409318581224,-9.80368355140984
1779786626692312000,5.72531201171875,0.1792132788667455,0.15096914462447167,-9.80385072467029
1779786626702394000,5.73539404296875,0.1923382429756224,0.1547988041815348,-9.803543266156316
1779786626712476000,5.745475830078125,0.2061467141029425,0.1569872358702123,-9.803226455292105
1779786626722558000,5.755557861328125,0.21723321292046457,0.15976481082476673,-9.802943546697497
1779786626732639000,5.765638916015625,0.2255579736733809,0.162777637573611,-9.802703892722725
1779786626742721000,5.775720947265625,0.22914967802241443,0.1668860044742003,-9.802551917031407
1779786626752803000,5.785802978515625,0.2287526049962267,0.17210351992677897,-9.80247066848874
1779786626762885000,5.795885009765625,0.2270279914270155,0.1776207489782944,-9.802412216299771
1779786626772967200,5.80596728515625,0.2233953340130858,0.18269845410138366,-9.802401694905758
1779786626783049200,5.81604931640625,0.21972523066559804,0.18772316866191102,-9.802390588989853
1779786626793130000,5.8261298828125,0.21796613030489534,0.1923379324483685,-9.802342073673008
1779786626803212000,5.8362119140625,0.2163973648845218,0.19678660068660975,-9.802287713137268
1779786626813293800,5.8462939453125,0.21276666196566074,0.20084173956261947,-9.80228537504971
1779786626823376000,5.8563759765625,0.2060357828080654,0.20423863372560588,-9.80235902480781
1779786626833458000,5.8664580078125,0.19701226266864685,0.20647841200903058,-9.802496387451887
1779786626843540000,5.8765400390625,0.18789684472838417,0.2074280226177536,-9.802654792883992
1779786626853621000,5.88662109375,0.18022592650800942,0.20677518473220988,-9.802813198316096
1779786626863703000,5.896703125,0.17595447800019756,0.20464334206897764,-9.802935363391041
1779786626873785000,5.90678515625,0.1779166814512573,0.2016635773395188,-9.802962251397966
1779786626883867100,5.9168671875,0.18527418634090573,0.19855529085956514,-9.802887432596087
1779786626893949000,5.926948974609375,0.19415139334481207,0.196097010987252,-9.802766436564921
1779786626904030200,5.9370302734375,0.2020360091147944,0.19438017886569722,-9.80264134888053
1779786626914112000,5.947112060546875,0.20978401115937156,0.19330922516593707,-9.802499310061336
1779786626924194000,5.957194091796875,0.21616023166039958,0.1923969508929178,-9.80238006759584
1779786626934276000,5.967276123046875,0.21883832829585298,0.19130530146500094,-9.802342073673008
1779786626944358100,5.977358154296875,0.2184108053324744,0.1901192152192816,-9.802375391420721
1779786626954440200,5.987440185546875,0.21731155711999162,0.188763909886498,-9.802425660303234
1779786626964521000,5.99752099609375,0.21620878350986167,0.18719419461805373,-9.802480020838976
1779786626974603000,6.00760302734375,0.21495012521827592,0.18598885568259282,-9.80252912067771
1779786626984685000,6.01768505859375,0.21435968504445627,0.1856558243359439,-9.802547825378179
1779786626994766800,6.027766845703125,0.2137020431196317,0.1855648581168614,-9.802565361034869
1779786627004849000,6.037848876953125,0.2127984636097215,0.1856007879467681,-9.802584650257229
1779786627014931000,6.047930908203125,0.2131376141699031,0.1854824039977975,-9.802579389560222
1779786627025012000,6.058011962890625,0.21451935085188595,0.18532407163092865,-9.802553086075186
1779786627035094000,6.068093994140625,0.21651171197919175,0.18487194394925607,-9.802517430239915
1779786627045176000,6.078176025390625,0.22043493157122282,0.18445640368461608,-9.802436766219138
1779786627055258000,6.088258056640625,0.22600215551061553,0.18411233948729933,-9.802316939231753
1779786627065340200,6.098340087890625,0.23233190652141347,0.18407489355374126,-9.80216963971555
1779786627075422000,6.108421875,0.2396473441013135,0.1841568362161517,-9.801991945061086
1779786627085503000,6.1185029296875,0.2473324917764403,0.18411750885276124,-9.801801975446939
1779786627095585000,6.1285849609375,0.2557576076312922,0.18336807872494681,-9.801599146351217
1779786627105667000,6.1386669921875,0.2663287408052012,0.18157524049142373,-9.80135014002621
1779786627115749000,6.1487490234375,0.277655313722603,0.17916048923358321,-9.801080090913176
1779786627125831200,6.1588310546875,0.28556162986774,0.1769012207983993,-9.800895381996035
1779786627135913000,6.168912841796875,0.2867662564171478,0.1751992209197953,-9.800891290342808
1779786627145994000,6.178993896484375,0.27899964100364594,0.17234375842344016,-9.80116484658718
1779786627156076000,6.189075927734375,0.2452194268789142,0.15937179291918874,-9.802288297659159
1779786627166158000,6.199157958984375,0.2050390451219864,0.14863786126584744,-9.803379600027203
1779786627176239900,6.209239990234375,0.18657127694673836,0.1439732304556761,-9.803817991444468
1779786627186322000,6.219322021484375,0.1888331209314987,0.14311374581581912,-9.803787596306204
1779786627196404000,6.229404052734375,0.19306520554330198,0.14092227278668432,-9.803734989336132
1779786627206485000,6.239485107421875,0.19379180278480052,0.1392865887430962,-9.803746095252036
1779786627216567000,6.249567138671875,0.1924454662097618,0.1383939598854631,-9.803784673696756
1779786627226649000,6.259649169921875,0.18915320146502926,0.13856076781973242,-9.803846048495172
1779786627236731100,6.269731201171875,0.1858333728599362,0.13977730400264263,-9.803891641202569
1779786627246813200,6.279813232421875,0.18368753820396957,0.14210232201726175,-9.803898655465245
1779786627256895000,6.28989501953125,0.18200194147089496,0.14449042273019438,-9.803896317377687
1779786627266977000,6.29997705078125,0.18168739562900735,0.14759378643985838,-9.803857738932967
1779786627277058000,6.31005810546875,0.1831181956171058,0.15173444817485288,-9.803767722561956
1779786627287139800,6.320139892578125,0.18531081029055638,0.15577287337807938,-9.803661339578031
1779786627297222000,6.330221923828125,0.18777422299571334,0.15957230219366028,-9.803554372072218
1779786627307304000,6.340303955078125,0.18909102294901384,0.16230097823888062,-9.803483060401678
1779786627317386000,6.350385986328125,0.189280992563162,0.16366315170386805,-9.803457925960421
1779786627327468000,6.360468017578125,0.189301797889173,0.16357262387620283,-9.803458510482312
1779786627337549000,6.370549072265625,0.1914345538678579,0.16219733520131557,-9.80343980578184
1779786627347631000,6.380631103515625,0.1957089615177363,0.1600410522165708,-9.803391874986886
1779786627357713000,6.390712890625,0.20135683121159673,0.1576442932731472,-9.803314718097448
1779786627367795000,6.400794921875,0.2067181755816564,0.15522409865520895,-9.803242821905016
1779786627377877000,6.410876953125,0.2110861250001937,0.1525993305090349,-9.803190799456834
1779786627387959000,6.420958984375,0.21448800586555153,0.14962953005116433,-9.80316274240613
1779786627398040000,6.4310400390625,0.21546552739450706,0.14584294245084747,-9.80319898276329
1779786627408122000,6.4411220703125,0.2156526109318249,0.1410416887821164,-9.803264449214934
1779786627418204200,6.4512041015625,0.21670376395257188,0.13499356772429308,-9.803325239491462
1779786627428286000,6.461285888671875,0.21792687600674107,0.1280438855837099,-9.803391874986886
1779786627438368000,6.471367919921875,0.22001126279905436,0.12022085467469877,-9.803445066478847
1779786627448450000,6.481449951171875,0.2249008797378279,0.11208327792380005,-9.803429868909715
1779786627458532000,6.491531982421875,0.2322777469150722,0.10399510240573435,-9.80334803584516
1779786627468612900,6.50161279296875,0.24059562126947565,0.0967086625914555,-9.803222363638877
1779786627478695000,6.51169482421875,0.24981481011146678,0.09030857715765014,-9.803052852290868
1779786627488777000,6.52177685546875,0.2595320846687071,0.0851082959676627,-9.80284651606381
1779786627498859000,6.53185888671875,0.2686104220015928,0.08102950222142971,-9.802635503661632
1779786627508941000,6.541941162109375,0.2753644080401398,0.07815113377352245,-9.8024730065763
1779786627519022800,6.55202294921875,0.2780931388842873,0.07701676858188584,-9.802404617515206
1779786627529105000,6.56210498046875,0.2767118771263398,0.0780536282157991,-9.8024332590878
1779786627539186000,6.57218603515625,0.27255114071769637,0.08160079930336214,-9.802522106415033
1779786627549268000,6.58226806640625,0.26819026036076243,0.08685222615869716,-9.802597509738803
1779786627559350000,6.59235009765625,0.2644042390160262,0.09363706399323418,-9.80263959531486
1779786627569432000,6.60243212890625,0.26119139618305487,0.10139197983578778,-9.802646609577536
1779786627579514000,6.61251416015625,0.258551951057557,0.10927644034214318,-9.802632581052183
1779786627589596200,6.62259619140625,0.2545898972924799,0.11638233595774508,-9.802653623840213
1779786627599677200,6.63267724609375,0.2463425491573289,0.12206108484705909,-9.802795078137516
1779786627609759000,6.642759033203125,0.23390679115531965,0.12571137838237917,-9.803054021334647
1779786627619841000,6.652841064453125,0.21879218759918584,0.12675496915117837,-9.803387783333658
1779786627629923000,6.662923095703125,0.20425260745203122,0.12545736708869226,-9.80372037628889
1779786627640005000,6.673005126953125,0.19198922860855236,0.12187531648399308,-9.804013221755623
1779786627650087200,6.683087158203125,0.18341966278171165,0.11575035819713957,-9.804250537642837
1779786627660169200,6.693169189453125,0.17695377296954393,0.10745538066113366,-9.804463888132572
1779786627670250000,6.70325,0.17034670285470782,0.09702287963978014,-9.80469068262577
1779786627680332000,6.71333203125,0.16217678560363127,0.08588739971453324,-9.80493325920999
1779786627690413800,6.723413818359375,0.15026510627465323,0.07495220986804925,-9.80521266067326
1779786627700496000,6.733495849609375,0.13278991106702015,0.06449624120614025,-9.805538239365816
1779786627710578000,6.743577880859375,0.11172760548708029,0.05435928449868224,-9.805863233536481
1779786627720660000,6.753659912109375,0.09017907815962098,0.045425986226252275,-9.806130944561957
1779786627730742000,6.763741943359375,0.06964594298636075,0.03736738157925429,-9.80633318913579
1779786627740824000,6.773823974609375,0.05148005296767223,0.028781419456750154,-9.806472305345535
1779786627750905000,6.783905029296875,0.038142514687194484,0.019703687195351812,-9.80655530745387
1779786627760987100,6.793987060546875,0.03133586916293716,0.010386884339427343,-9.806593301376699
1779786627771069000,6.80406884765625,0.032871652479027395,0.0005266256458233328,-9.806595054942369
1779786627781151000,6.81415087890625,0.043457690961123445,-0.009748751974315382,-9.806550046756863
1779786627791233000,6.82423291015625,0.06274047444683965,-0.018873493723705177,-9.806430804291367
1779786627801315000,6.834315185546875,0.0870720063892193,-0.025411719261365942,-9.806230897805094
1779786627811397000,6.844397216796875,0.1089162561270874,-0.027619024613872167,-9.806006441399454
1779786627821478100,6.85447802734375,0.12134426921405829,-0.025284996742312795,-9.805866740667819
1779786627831560000,6.864559814453125,0.12238506523757241,-0.019800701846019363,-9.80586615614593
1779786627841642000,6.87464208984375,0.11763123090714216,-0.011941734257235657,-9.805936298772693
1779786627851723800,6.884723876953125,0.11433034446453674,-0.0035682992135043605,-9.805981891480087
1779786627861805600,6.8948056640625,0.11615930432421155,0.0023215467023714152,-9.80596084869206
1779786627871887600,6.9048876953125,0.11813827624698169,0.0008308190213789202,-9.80593805233836
1779786627881969700,6.9149697265625,0.11940091659394092,0.00020050269217854292,-9.80592168572545
1779786627892050700,6.92505078125,0.12064192049782722,0.004157152501725068,-9.805905903634429
1779786627902132700,6.9351328125,0.1204833872015588,0.012448862937110243,-9.80590239650309
1779786627912214500,6.945214599609375,0.11903687818767503,0.02171706827779999,-9.80590356554687
1779786627922296600,6.955296630859375,0.11822740670200436,0.02878939270065166,-9.805895382240415
1779786627932378600,6.965378662109375,0.11892833064612932,0.03328208502699854,-9.805873170408606
1779786627942460400,6.97546044921875,0.12333942508664912,0.03528837878153426,-9.80580945752263
1779786627952542500,6.98554248046875,0.1334892093096394,0.03599737871754914,-9.805675017488003
1779786627962624500,6.99562451171875,0.146248792438535,0.036242788862960874,-9.80549264665842
1779786627972705500,7.00570556640625,0.15702468180377036,0.03772588072729995,-9.805320212700963
1779786627982787600,7.01578759765625,0.16496082683159038,0.04165542274555191,-9.805173497706651
1779786627992869600,7.02586962890625,0.16963093753447755,0.04656740221318323,-9.805071206375956
1779786628002951700,7.03595166015625,0.16977310421783476,0.05012310823365115,-9.805053086197375
1779786628013033700,7.04603369140625,0.16613418145989997,0.051781026941933664,-9.805106862211227
1779786628023115500,7.056115478515625,0.16074907262176275,0.051761993447900743,-9.805196294060348
1779786628033197600,7.066197509765625,0.15595721696903928,0.05087460702096577,-9.805276373559236
1779786628043279600,7.076279541015625,0.15555015227179975,0.049171031673206016,-9.805293324694038
1779786628053360600,7.086360595703125,0.16130418575387448,0.046501967727579176,-9.80521266067326
1779786628063442700,7.096442626953125,0.16995938403755426,0.04188067373563535,-9.805086403945088
1779786628073524700,7.106524658203125,0.17731040438748896,0.03558551911418326,-9.804981774526834
1779786628083606800,7.116606689453125,0.17946268705055116,0.02641428390003275,-9.804972422176599
1779786628093688800,7.126688720703125,0.17486909391628577,0.015225879627594257,-9.805078220638633
1779786628103770600,7.1367705078125,0.16904990450982002,0.005108184743032325,-9.805191033363341
1779786628113852700,7.146852783203125,0.16989271200951186,-0.00108279633301172,-9.805177589359879
1779786628123934700,7.156934814453125,0.17466644748365506,-0.0030538200567025342,-9.805094002729653
1779786628134015500,7.167015380859375,0.17500645656036212,-0.0021448763882690397,-9.805088157510756
1779786628144097500,7.17709765625,0.1657111337422393,-0.000012100934737577518,-9.8052500700742
1779786628154179600,7.1871796875,0.1436751151587814,0.002054651239053055,-9.805596691554785
1779786628164261600,7.19726171875,0.11150574289732612,0.002382269336473109,-9.80601579374969
1779786628174343700,7.20734375,0.07753081905124709,-0.000822385195348761,-9.806342541486025
1779786628184425500,7.217425537109375,0.05013015446236822,-0.006898970300075598,-9.80651906709671
1779786628194507500,7.227507568359375,0.034922965835512146,-0.014012504657794488,-9.806578103807569
1779786628204589600,7.237589599609375,0.03120391106305178,-0.019210423785692547,-9.806582195460797
1779786628214670600,7.247670654296875,0.03331240938331466,-0.021338199911871924,-9.806571089544892
1779786628224752600,7.257752685546875,0.034464502027886916,-0.02029719839238096,-9.806568166935444
1779786628234834700,7.267834716796875,0.03136836492674192,-0.01646541766017908,-9.806587456157803
1779786628244916700,7.277916748046875,0.023936082334409,-0.011291486762644489,-9.806614928686619
1779786628254998800,7.287998779296875,0.013376849660847802,-0.005958431197085883,-9.806637725040316
1779786628265080600,7.29808056640625,0.0020468089988367865,-0.0010997531046814401,-9.806649415478109
1779786628275162600,7.30816259765625,-0.007571547786661539,0.003282627268829674,-9.806645323824881
1779786628285244700,7.31824462890625,-0.012268392945313825,0.007153908608946949,-9.806638894084095
1779786628295326700,7.32832666015625,-0.011498800237238174,0.011743056180246639,-9.806636555996537
1779786628305407500,7.338407470703125,-0.008414581902750068,0.017105934920266734,-9.806631879821419
1779786628315489500,7.348489501953125,-0.005267756364805973,0.022681593327864537,-9.806622527471184
1779786628325571600,7.358571533203125,-0.0037347058597966675,0.027242731797520535,-9.80661317512095
1779786628335653600,7.368653564453125,-0.005328727021135273,0.029208892187778838,-9.806604991814494
1779786628345735400,7.3787353515625,-0.010199616997374686,0.028510221849533262,-9.806604407292603
1779786628355817500,7.3888173828125,-0.019050268212851367,0.024688229575695005,-9.806600315639376
1779786628365899500,7.3988994140625,-0.02893588849925436,0.018277880759490654,-9.806588625201583
1779786628375981600,7.408981689453125,-0.03568179854591144,0.011432229815539903,-9.806579857373237
1779786628386063600,7.419063720703125,-0.03757961782413768,0.003976274372085754,-9.806578688329457
1779786628396144600,7.42914453125,-0.03649521327104885,-0.0033125623244341113,-9.806582195460797
1779786628406226700,7.439226806640625,-0.034787224326364226,-0.01047413907283917,-9.806582195460797
1779786628416308700,7.449308837890625,-0.034698947821289766,-0.01677865061110351,-9.80657342763245
1779786628426390500,7.459390625,-0.03667261109799146,-0.02177118221836863,-9.80655706101954
1779786628436472600,7.46947265625,-0.04056766860804055,-0.025817783878184855,-9.806533095622061
1779786628446554600,7.4795546875,-0.04651858093566261,-0.02896638181892922,-9.80649802430868
1779786628456636700,7.48963671875,-0.05158002904369496,-0.03231556209938135,-9.80646236847341
1779786628466718700,7.49971875,-0.05309184924559667,-0.03553683711726917,-9.806442494729161
1779786628476800800,7.50980078125,-0.05110988621471915,-0.03768518795730779,-9.806446001860499
1779786628486881800,7.5198818359375,-0.047659270836808716,-0.03930560364981647,-9.806455354210733
1779786628496963800,7.5299638671875,-0.043704774757102126,-0.03987415165223647,-9.806472889867424
1779786628507045600,7.540045654296875,-0.037539438794087616,-0.039471854461659676,-9.80649919335246
1779786628517127700,7.550127685546875,-0.029341510158078742,-0.0373985872849822,-9.806535433709621
1779786628527209500,7.56020947265625,-0.022796474712074268,-0.03396535458342405,-9.806562906238437
1779786628537291500,7.57029150390625,-0.021543031451723073,-0.03030443462281255,-9.806578688329457
1779786628547373600,7.58037353515625,-0.024845785624429115,-0.026391533212107604,-9.806582779982685
1779786628557455600,7.59045556640625,-0.02834424503232585,-0.02161930927503854,-9.806585118070243
1779786628567537700,7.60053759765625,-0.0297375305882073,-0.016349640085181454,-9.806590378767252
1779786628577618700,7.61061865234375,-0.029254863921087233,-0.011086046726373023,-9.806600900161266
1779786628587700500,7.620700439453125,-0.027737447378749492,-0.006489079462332302,-9.806607914423942
1779786628597782500,7.630782470703125,-0.02525246672917856,-0.003028551186827826,-9.806616097730398
1779786628607864600,7.640864501953125,-0.021481722868676296,-0.00032164026940063195,-9.806626034602523
1779786628617946600,7.650946533203125,-0.016735409690998494,0.0023853536312977664,-9.806634802430867
1779786628628028700,7.661028564453125,-0.0131991276069195,0.005209454872886999,-9.806638894084095
1779786628638110700,7.67111083984375,-0.013212785097869346,0.007992195767970407,-9.806637725040316
1779786628648192800,7.68119287109375,-0.016270794703799763,0.009842985579429659,-9.806633048865198
1779786628658274600,7.691274658203125,-0.018573293784289853,0.010352842789218993,-9.806628372690081
1779786628668356600,7.701356689453125,-0.01764470541399787,0.008990561438843725,-9.80663129529953
1779786628678437600,7.711437744140625,-0.013279822452092775,0.006264651597800548,-9.806640063127874
1779786628688519700,7.721519775390625,-0.006849066743743606,0.002461975660374446,-9.80664883095622
1779786628698601700,7.731601806640625,0.0005812347746139494,-0.0018222288674944137,-9.80665
1779786628708683800,7.741683837890625,0.007117226435436168,-0.005560340394990634,-9.806645908346772
1779786628718765800,7.751765869140625,0.010926883242442271,-0.008787565663052372,-9.806640647649765
1779786628728847600,7.76184765625,0.013153220947337103,-0.011604596415982814,-9.806634802430867
1779786628738929700,7.7719296875,0.014381581140425986,-0.015139685481751802,-9.806627788168191
1779786628749011700,7.78201171875,0.015077574322751024,-0.019413944717869162,-9.806619604861735
1779786628759093500,7.792093505859375,0.01590657363444334,-0.02427911905184155,-9.806607914423942
1779786628769175600,7.802175537109375,0.017108929453307064,-0.029496141314075793,-9.806591547811031
1779786628779257600,7.812257568359375,0.017681394437374546,-0.033990566656494046,-9.806575765720009
1779786628789338600,7.822338623046875,0.015543926892598392,-0.03719201131261652,-9.806567582413553
1779786628799420700,7.832420654296875,0.008675091435882494,-0.0383293744622264,-9.806571674066781
1779786628809502700,7.842502685546875,-0.00036741874373219616,-0.037832989797007756,-9.806578103807569
1779786628819584500,7.85258447265625,-0.007504487599551793,-0.036194353461219,-9.806580441895127
1779786628829666600,7.86266650390625,-0.01220995103114401,-0.03357308331322856,-9.806583949026464
1779786628839748600,7.87274853515625,-0.01701673824987374,-0.030902973621408453,-9.806586871635913
1779786628849830400,7.882830322265625,-0.023900090855709277,-0.027954706858622374,-9.806582195460797
1779786628859912400,7.892912353515625,-0.032392323979886714,-0.024769873127294704,-9.806565244325995
1779786628869994500,7.902994384765625,-0.04043733392637223,-0.021256241266441066,-9.806544201537966
1779786628880076300,7.913076171875,-0.045909518259763714,-0.01712815131865209,-9.806527250403166
1779786628890157600,7.923157470703125,-0.04827489568423479,-0.012252739860099972,-9.806524327793717
1779786628900239400,7.9332392578125,-0.049221305122296326,-0.00661463407925039,-9.806526081359387
1779786628910321400,7.9433212890625,-0.05113440416804515,-0.001053854579314793,-9.80651731353104
1779786628920403500,7.953403564453125,-0.05561117968934122,0.004134643842394871,-9.806492763611674
1779786628930485500,7.963485595703125,-0.061020989143894984,0.008108149727014824,-9.806458276820182
1779786628940567600,7.973567626953125,-0.06556941426245029,0.011024855732690774,-9.80642612811625
1779786628950649600,7.983649658203125,-0.06876940674700308,0.01254990987550118,-9.806401578196883
1779786628960731400,7.9937314453125,-0.06944496792100835,0.013109200284164398,-9.806396317499875
1779786628970813400,8.0038134765625,-0.06831351163908839,0.013466361425071955,-9.806403916284442
1779786628980895500,8.0138955078125,-0.06769416959777008,0.013815228520025265,-9.80640683889389
1779786628990977500,8.0239775390625,-0.06653873878521845,0.01449341890088981,-9.806413268634676
1779786629001059600,8.0340595703125,-0.06452433935604057,0.01560495234785485,-9.80642495907247
1779786629011140400,8.044140380859375,-0.0633226308495039,0.016959699416568035,-9.806430804291367
1779786629021222400,8.054222412109375,-0.0646654876926681,0.017851474324252922,-9.806420867419241
1779786629031304400,8.064304443359376,-0.06901423008723649,0.01773516816793708,-9.806391056802868
1779786629041386200,8.07438623046875,-0.07439595965819898,0.017147908615181222,-9.806354231923818
1779786629051468300,8.08446826171875,-0.07914767053020186,0.016152721282083074,-9.806318576088547
1779786629061550300,8.09455029296875,-0.0810708754114341,0.014593594764667796,-9.806303378519415
1779786629071632400,8.10463232421875,-0.07901780620599165,0.012224754732986912,-9.806324421307444
1779786629081714400,8.11471435546875,-0.07488554240658413,0.009382824717529001,-9.806360077142715
1779786629091796500,8.12479638671875,-0.07188952522864565,0.005720555904158391,-9.806385796105861
1779786629101878500,8.13487841796875,-0.07074046022479888,0.0014078335293976124,-9.806394563934207
1779786629111960300,8.144960205078124,-0.07120557981878518,-0.0030195279155668686,-9.806391056802868
1779786629122042400,8.15504248046875,-0.07305654144771397,-0.007357363325753249,-9.806375274711847
1779786629132123400,8.165123291015625,-0.07600669192362111,-0.011623526020382996,-9.80634897122681
1779786629142205400,8.175205322265626,-0.07852777593303471,-0.015609262055146973,-9.806325005829335
1779786629152287500,8.18528759765625,-0.0779973131849896,-0.02005793257667683,-9.806319160610437
1779786629162369500,8.19536962890625,-0.07575513288192451,-0.024293672733579297,-9.806327343916893
1779786629172451600,8.20545166015625,-0.07408582056337036,-0.02834564925483428,-9.806327928438781
1779786629182533400,8.215533447265624,-0.07434486879177857,-0.03222332180524245,-9.806315653479098
1779786629192615400,8.225615478515625,-0.07691834970870987,-0.03549287239466794,-9.806284673818945
1779786629202697500,8.235697509765625,-0.08093185966638848,-0.037753887545655014,-9.806244341808556
1779786629212779500,8.245779541015626,-0.0844898352757562,-0.03884769924790598,-9.806209855017066
1779786629222861600,8.255861572265625,-0.08423566871844232,-0.038177825745882,-9.806214531192182
1779786629232943600,8.265943603515625,-0.07731254579122178,-0.0360589749949635,-9.806277659556269
1779786629243025700,8.276025634765626,-0.06653859722132328,-0.032590406118542886,-9.80636942949295
1779786629253106400,8.2861064453125,-0.05532609283737838,-0.028307041127362754,-9.806451847079396
1779786629263188500,8.2961884765625,-0.04500713519309647,-0.023342297142744065,-9.80651906709671
1779786629273270300,8.306270263671875,-0.03630830554695567,-0.017684589899814453,-9.806566413369774
1779786629283352300,8.316352294921876,-0.02965304434226127,-0.011186240856460063,-9.806597977551817
1779786629293434400,8.326434326171874,-0.02517301285137655,-0.003471182100259466,-9.806616682252287
1779786629303516400,8.336516357421875,-0.022042829633445945,0.005191416892697452,-9.806623111993074
1779786629313598500,8.346598388671875,-0.019035576392151414,0.013602016169251873,-9.806620773905514
1779786629323680500,8.356680419921876,-0.01630191935278126,0.021132416240661405,-9.806613759642838
1779786629333762300,8.36676220703125,-0.0139666059897223,0.027047574551601426,-9.806602653726936
1779786629343844400,8.37684423828125,-0.01158095524549135,0.03152956282084342,-9.80659271685481
1779786629353926400,8.386926513671876,-0.009653780866973102,0.03478617858017096,-9.806583949026464
1779786629364008400,8.397008544921874,-0.009272948301999713,0.037012859920004845,-9.806575765720009
1779786629374090500,8.407090576171875,-0.01073313021903159,0.03784041276834905,-9.806571089544892
1779786629384172500,8.417172607421875,-0.012672161715413676,0.03689122456802288,-9.80657284311056
1779786629394253600,8.427253662109376,-0.014185725208185613,0.0342918602911639,-9.806580441895127
1779786629404335600,8.437335693359374,-0.014711067681474378,0.02978881096758414,-9.80659388589859
1779786629414417400,8.44741748046875,-0.013533606558560859,0.023850892835564446,-9.80661200607717
1779786629424499500,8.45749951171875,-0.011392214040627005,0.017680509663029805,-9.806627788168191
1779786629434581500,8.46758154296875,-0.010441160393488826,0.011700894114020047,-9.806637725040316
1779786629444663600,8.47766357421875,-0.010385080541408387,0.005834800250839907,-9.806644154781102
1779786629454745600,8.48774560546875,-0.00966100405055913,0.0006362475103465839,-9.806646492868662
1779786629464827600,8.49782763671875,-0.006233355131349526,-0.0039212068731023465,-9.80664824643433
1779786629474909400,8.507909423828124,0.00187901225788446,-0.008601632332382723,-9.806646492868662
1779786629484991200,8.5179912109375,0.013953280717268353,-0.013216971507575363,-9.806631879821419
1779786629495073300,8.5280732421875,0.026949826965283134,-0.017099996086535976,-9.806599146595596
1779786629505155300,8.5381552734375,0.03813073520114412,-0.01990410742156673,-9.80655589197576
1779786629515237400,8.5482373046875,0.046381378121790474,-0.02172090876927832,-9.80651731353104
1779786629525319400,8.5583193359375,0.05204777898618485,-0.022105238761613143,-9.806487502914667
1779786629535400400,8.568400390625,0.05571948063571471,-0.020467365044227335,-9.806471136301756
1779786629545482500,8.578482421875,0.05812082442271057,-0.016996577952901132,-9.806463537517189
1779786629555564300,8.588564208984375,0.05930106544953305,-0.012001089486858109,-9.80646412203908
1779786629565646300,8.598646240234375,0.059199317541532216,-0.006057385501445969,-9.806469382736086
1779786629575728400,8.608728271484376,0.056575266347988505,0.00041855877221096306,-9.806486918392777
1779786629585810400,8.618810546875,0.050103188823629165,0.007650273866212228,-9.80651848257482
1779786629595892500,8.628892578125,0.03907637973751407,0.01535514116360573,-9.806558814585209
1779786629605974500,8.638974609375,0.02226429493097821,0.024074534107162617,-9.80659388589859
1779786629616056300,8.649056396484376,0.0009377588423169072,0.03320644195792265,-9.806593301376699
1779786629626138400,8.659138427734375,-0.017708178554667393,0.04269338749116287,-9.806541863450407
1779786629636220400,8.669220458984375,-0.030018400206067598,0.05154540068830829,-9.806469967257977
1779786629646302500,8.679302490234376,-0.03522366124856053,0.05955826421414967,-9.806407423415779
1779786629656384500,8.689384521484374,-0.0353374466542271,0.0671701639899751,-9.806356570011376
1779786629666466600,8.699466552734375,-0.033894835214037446,0.07466211804740597,-9.806307470172642
1779786629676548600,8.709548583984375,-0.0316024157112115,0.081815108774323,-9.80625720129013
1779786629686630400,8.71963037109375,-0.029667826352862175,0.0890960138969589,-9.80620167171061
1779786629696711400,8.72971142578125,-0.027110479153401684,0.09623259691176936,-9.806139712390303
1779786629706793500,8.73979345703125,-0.023259534779714885,0.1027488104053773,-9.806084182810784
1779786629716875300,8.749875244140625,-0.019816134593880267,0.10788644728846847,-9.80603625201583
1779786629726957300,8.759957275390626,-0.016834546658449107,0.11152665782119146,-9.806001180702447
1779786629737039400,8.770039306640625,-0.013862255132681457,0.11445515815429388,-9.805973123651743
1779786629747121400,8.780121337890625,-0.009937326499109621,0.11618878614702262,-9.80595792608261
1779786629757203500,8.790203369140626,-0.0034379319949730414,0.11736535564572549,-9.805945651122927
1779786629767285200,8.80028515625,0.005497460338543169,0.11913879505903459,-9.805924608334898
1779786629777367300,8.8103671875,0.013672231861250474,0.12129431999195367,-9.805890121543406
1779786629787449300,8.820449462890625,0.01856670649658772,0.1221087416473776,-9.805870832321046
1779786629797531400,8.830531494140626,0.02080457252578344,0.12219061124455183,-9.805866740667819
1779786629807613400,8.840613525390625,0.022086632242554333,0.12035818078615702,-9.805887198933958
1779786629817695500,8.850695556640625,0.02434668384573888,0.11697877661408856,-9.80592227024734
1779786629827777300,8.86077734375,0.027995954467752014,0.11210546235614456,-9.805969616520404
1779786629837859300,8.870859375,0.03209513113159919,0.10627055479073896,-9.806023392534255
1779786629847941400,8.88094140625,0.03567459705356741,0.09970936051108874,-9.806078922113775
1779786629858023400,8.8910234375,0.03871663848045282,0.09324082208410836,-9.80612919099629
1779786629868105500,8.90110546875,0.04133072996898554,0.0862905188890174,-9.80618238248825
1779786629878186500,8.9111865234375,0.042619696633866985,0.07845962433395907,-9.806243757286667
1779786629888268500,8.9212685546875,0.04349671693041455,0.06969587850873359,-9.806305716606975
1779786629898350600,8.9313505859375,0.04526889140182175,0.06107929063581396,-9.806354816445708
1779786629908432400,8.941432373046876,0.04812555490799714,0.05364110345907975,-9.806384627062082
1779786629918514400,8.951514404296875,0.052325111789954824,0.04810679084202275,-9.806391641324758
1779786629928596500,8.961596435546875,0.05752146115691866,0.04510578696171287,-9.806377028277517
1779786629938678500,8.971678466796876,0.06359399057021364,0.044744872094294987,-9.806341372442246
1779786629948760600,8.981760498046874,0.06944041961005423,0.046883518957649355,-9.806291103559731
1779786629958842600,8.991842529296875,0.07502957225346471,0.050522546746861186,-9.806232651370763
1779786629968924400,9.00192431640625,0.08275727586210704,0.05499964649514295,-9.806147311174868
1779786629979006500,9.01200634765625,0.0929716862865258,0.05927709548547864,-9.806030406796932
1779786629989088500,9.022088623046875,0.10278912414945661,0.06304575470346026,-9.805908826243877
1779786629999170600,9.032170654296875,0.11182015174189582,0.066090378529788,-9.80578899925649
1779786630009252400,9.04225244140625,0.12090225193444638,0.06839316187971271,-9.805666249659657
1779786630019334400,9.05233447265625,0.13107105138516054,0.07041047935176174,-9.805520119187236
1779786630029416400,9.06241650390625,0.1420591952615883,0.07340760620797518,-9.80534476262033
1779786630039498200,9.072498291015625,0.15342300404999404,0.07579913185385521,-9.80515654657185
1779786630049580300,9.082580322265626,0.16443976209955288,0.07815297867073677,-9.804960731738806
1779786630059662300,9.092662353515625,0.1736079331403598,0.08012585877943784,-9.8047853751719
1779786630069744400,9.102744384765625,0.179799152463302,0.08154645703393035,-9.804663210096955
1779786630079825400,9.112825439453125,0.18385462013287468,0.08306126377736217,-9.804574947291613
1779786630089907500,9.122907470703124,0.1857597231018357,0.08497735393121839,-9.80452175579965
1779786630099989500,9.132989501953125,0.18461206917036324,0.08660744848423636,-9.804529354584217
1779786630110071300,9.1430712890625,0.18176150204483418,0.08703419512948021,-9.80457903894484
1779786630120153300,9.1531533203125,0.17817295776726677,0.08638102845037356,-9.80465035061538
1779786630130235400,9.1632353515625,0.17506554807014763,0.08450739833191037,-9.804722831329702
1779786630140317400,9.1733173828125,0.17447350046113133,0.08203635030956938,-9.804753810989856
1779786630150399500,9.1833994140625,0.17704543330837041,0.07858189900675788,-9.804738028898834
1779786630160481500,9.1934814453125,0.18263032076861707,0.07425977519105653,-9.804668470793962
1779786630170563600,9.2035634765625,0.18809192890906706,0.07069927426446229,-9.804591898426413
1779786630180645400,9.213645263671875,0.19064665489317847,0.06708391961178277,-9.804567933028936
1779786630190727400,9.2237275390625,0.19256483653942122,0.06220865085877012,-9.804562087810039
1779786630200809500,9.2338095703125,0.19478908846015108,0.05607809851476922,-9.804556242591142
1779786630210891500,9.2438916015625,0.19474099326841532,0.04913244866190944,-9.804593651992082
1779786630220973600,9.2539736328125,0.19247480190210042,0.041450077465758656,-9.80467314696908
1779786630231055600,9.2640556640625,0.18896807242278008,0.03275187572399154,-9.804774269255995
1779786630241137400,9.274137451171875,0.18518800589479506,0.024732589307229498,-9.804871299889683
1779786630251219500,9.284219482421875,0.18228592777773736,0.018066851232649058,-9.804939104428886
1779786630261301500,9.294301513671876,0.18340258378274737,0.013447365605301456,-9.804925660425424
1779786630271383600,9.304383544921874,0.19060451451819388,0.011474689850932918,-9.804790635868907
1779786630281465600,9.314465576171875,0.20163400418516247,0.011651057914702686,-9.804569686594604
1779786630291547600,9.324547607421875,0.21145167037695645,0.012948148520535323,-9.804361596801876
1779786630301629400,9.33462939453125,0.21832802241984753,0.014896753846149658,-9.804209036588668
1779786630311710500,9.34471044921875,0.2221332964543253,0.017981338648463133,-9.804117851173878
1779786630321792300,9.354792236328125,0.22065743348179384,0.02228102458678186,-9.804142985615133
1779786630331874300,9.364874267578125,0.21393855528924613,0.027818138798989818,-9.804276256605982
1779786630341956400,9.374956298828126,0.2048608755434863,0.034230606507044285,-9.80444985960722
1779786630352038400,9.385038330078125,0.19671375464610755,0.04141890144278295,-9.804589560338854
1779786630362120400,9.395120361328125,0.19108533857138826,0.048913052023877385,-9.804666132706403
1779786630372202500,9.405202392578126,0.18795339722121132,0.0568017137813149,-9.804684252884984
1779786630382284300,9.4152841796875,0.18745896476777268,0.06443399875804316,-9.804647428005934
1779786630392366300,9.425366455078125,0.1889503358366899,0.07108469338547438,-9.804571440160274
1779786630402448400,9.435448486328125,0.19035550819318742,0.07669656931734643,-9.80450363562107
1779786630412530400,9.445530517578124,0.18981168364007026,0.08231513071833178,-9.80446739526391
1779786630422612500,9.455612548828125,0.18615639426922426,0.08757867726972327,-9.804492529705167
1779786630432694500,9.465694580078125,0.18019724840279666,0.09273535678000189,-9.80455741163492
1779786630442776300,9.4757763671875,0.17516798553131518,0.09756704211961477,-9.804601250776647
1779786630452858400,9.4858583984375,0.17276561883101238,0.10160858172853476,-9.804601250776647
1779786630462940400,9.4959404296875,0.17344362769043073,0.10491226291642523,-9.804555073547363
1779786630473022500,9.5060224609375,0.17579114066464827,0.10793541012988425,-9.804481423789262
1779786630483104500,9.5161044921875,0.1783325687757693,0.11121055934303439,-9.804398421680927
1779786630493186600,9.5261865234375,0.17972535657472907,0.11524282880011014,-9.804327694532274
1779786630503268600,9.5362685546875,0.17973567703934384,0.1201689144249074,-9.804267488777636
1779786630513350400,9.546350341796876,0.17857368405526503,0.1262894248655066,-9.804211959198117
1779786630523432400,9.556432373046874,0.17761517775403335,0.13242233812995255,-9.804145908224582
1779786630533514500,9.566514404296875,0.17796497757239266,0.13773552337619474,-9.804067582291363
1779786630543596500,9.576596435546875,0.17965912293810396,0.1418780391415581,-9.803977565920352
1779786630553678600,9.5866787109375,0.18153483541579915,0.14413201948027127,-9.80390859233737
1779786630563760600,9.5967607421875,0.18132013321919366,0.14441575919194147,-9.803909176859259
1779786630573842400,9.606842529296875,0.1796413863520138,0.1434043353933841,-9.803954769566655
1779786630583924500,9.616924560546876,0.17868618625272065,0.1418072389276698,-9.803996270620821
1779786630594006500,9.627006591796874,0.17921832036804405,0.1401955385478679,-9.804010299146174
1779786630604088600,9.637088623046875,0.1807681253596209,0.13833924315669574,-9.804009714624286
1779786630614170400,9.64717041015625,0.18382006027614697,0.13614735000245273,-9.80398224209547
1779786630624252400,9.65725244140625,0.18827608983693644,0.1332934949412942,-9.803936064866184
1779786630634333400,9.66733349609375,0.19448935659490524,0.12925078628859482,-9.80386942937076
1779786630644415500,9.67741552734375,0.20273756324658168,0.12422761523118242,-9.803766553518175
1779786630654497300,9.687497314453125,0.2106695800885558,0.11867631951328367,-9.803668353840708
1779786630664579300,9.697579345703126,0.21717731801476328,0.11299474847922102,-9.803593535038829
1779786630674661400,9.707661376953125,0.22266921169562265,0.10774967829943634,-9.803529822152852
1779786630684743400,9.717743408203125,0.22839887792142108,0.10365742228343151,-9.803442143869399
1779786630694825500,9.727825439453126,0.23651156682623548,0.10036804361552931,-9.803283153915405
1779786630704907500,9.737907470703124,0.24720055422615259,0.09790361713021993,-9.803045253506303
1779786630714989300,9.7479892578125,0.2569005671213381,0.09513270937846972,-9.802823135188222
1779786630725071400,9.7580712890625,0.2637114892452024,0.09187100416878238,-9.802671744018793
1779786630735153400,9.7681533203125,0.26748253221651536,0.08816382934707216,-9.802605108523368
1779786630745235500,9.7782353515625,0.2691009271985851,0.08487622251114807,-9.802590495476126
1779786630755317500,9.7883173828125,0.2690564122034237,0.08276795251974836,-9.802609200176596
1779786630765399600,9.798399658203126,0.2683532141038216,0.08249962043976411,-9.802629658442735
1779786630775481300,9.8084814453125,0.26918246800219636,0.08407048648567869,-9.802594002607464
1779786630785563400,9.8185634765625,0.2714974669463001,0.08755188059434295,-9.802500479105115
1779786630795645400,9.8286455078125,0.2735074367955327,0.09268206482334061,-9.80239701873064
1779786630805727500,9.8387275390625,0.2737171888223849,0.0991853640364483,-9.802326291581988
1779786630815809500,9.8488095703125,0.2720929120888002,0.10655283319768495,-9.802294727399945
1779786630825891600,9.8588916015625,0.26959983489774164,0.11454036135287024,-9.802272515568136
1779786630835973400,9.868973388671876,0.26621344386246054,0.12300618367744609,-9.802263163217901
1779786630846055400,9.879055419921874,0.26241427077520635,0.13196267559579572,-9.802249719214439
1779786630856138000,9.889137939453125,0.26131171636078504,0.14032031570500694,-9.802162625452876
1779786630866220000,9.899219970703125,0.26367687458954747,0.14728956106258556,-9.801998374801874
1779786630876302000,9.909302001953124,0.2672390788494609,0.15215599805517122,-9.801828278931975
1779786630886383900,9.9193837890625,0.27030149862738323,0.1553426835335791,-9.801693254375458
1779786630896465700,9.929465576171875,0.27169010344156996,0.15699909070478751,-9.801628956967592
1779786630906547700,9.939547607421876,0.2701170637048781,0.1577123352743685,-9.801661105671524
1779786630916629800,9.949629638671874,0.2648434889498167,0.15750808140654116,-9.801807820665836
1779786630926711800,9.9597119140625,0.2572470059388317,0.15687108041094616,-9.802020586633681
1779786630936793900,9.9697939453125,0.24827030234951525,0.1559387862632051,-9.80226667034924
1779786630946876000,9.9798759765625,0.23970398792568592,0.1535872364346869,-9.802516261196136
1779786630956957700,9.989957763671875,0.23289058158379047,0.14947899739826098,-9.802743055689334
1779786630967039700,10.000039794921875,0.226836852769088,0.14375306663266382,-9.802971019226312
1779786630977121800,10.010121826171876,0.22178057402651755,0.13600063500814139,-9.80319781371951
1779786630987203800,10.020203857421874,0.21806060365531593,0.12672740529081783,-9.803405318990349
1779786630997286000,10.030285888671875,0.21459011453315616,0.11621940048099495,-9.803612824261188
1779786631007368000,10.040367919921875,0.21040373222660272,0.10553183785318396,-9.803824421185254
1779786631017449700,10.05044970703125,0.20649523527966812,0.09449463067064061,-9.80401906697452
1779786631027531800,10.06053173828125,0.20402066185967996,0.08341690881461836,-9.804172796231507
1779786631037613800,10.07061376953125,0.20206881540585309,0.07278570688338949,-9.804298468437791
1779786631047696000,10.08069580078125,0.19963674768703057,0.06281140709146857,-9.804417710903286
1779786631057778000,10.09077783203125,0.19656985266339033,0.053673521591071034,-9.804532861715554
1779786631067860000,10.10085986328125,0.19334155653296037,0.046042099697445514,-9.80463515304625
1779786631077942000,10.11094189453125,0.19005605032257736,0.040497813675645734,-9.804723415851592
1779786631088023800,10.12102392578125,0.18741885195309296,0.03729717958698747,-9.804787713259458
1779786631098105900,10.13110595703125,0.18481270630899815,0.03676626931437058,-9.80483973570764
1779786631108188000,10.14118798828125,0.18245881839292122,0.03846358616799116,-9.80487831415236
1779786631118270000,10.15127001953125,0.17961223332276566,0.04205835012379102,-9.804916308075189
1779786631128352000,10.16135205078125,0.17495881802635266,0.04719204605070408,-9.804975929307938
1779786631138434000,10.17143408203125,0.16864051999133078,0.05323137644729577,-9.805055424284934
1779786631148515800,10.181515869140625,0.16198771103862672,0.060213545218529174,-9.805128489521145
1779786631158598000,10.191597900390626,0.1565849021470174,0.06769697347620968,-9.805167652487754
1779786631168680000,10.201679931640625,0.15326830667862668,0.07519909273462835,-9.805164729878307
1779786631178762000,10.211761962890625,0.1507047945998609,0.08274184083095751,-9.805143687090277
1779786631188844000,10.221843994140626,0.14802433247738517,0.08936231841663829,-9.805124982389808
1779786631198926000,10.231926025390624,0.14418818838060832,0.09496753627886063,-9.805130243086815
1779786631209007900,10.2420078125,0.1379596327219624,0.09954148399773985,-9.805173497706651
1779786631219090000,10.25208984375,0.12917039626245386,0.10238616937175392,-9.805265267643332
1779786631229172000,10.262171875,0.12069620796833187,0.10377413486512377,-9.805357622101903
1779786631239254000,10.27225390625,0.11428230407172814,0.10413531459402292,-9.805431271860003
1779786631249336000,10.282336181640625,0.1107398822245188,0.10295098191397264,-9.805484463351965
1779786631259417900,10.29241796875,0.11006100571542046,0.10015761573524214,-9.805521288231015
1779786631269500000,10.3025,0.11141594572202301,0.09566376578155904,-9.8055505143255
1779786631279581700,10.312581787109375,0.11230519531248137,0.08957699321378022,-9.805599614164233
1779786631289663700,10.322663818359375,0.11222392850350588,0.08212108771726488,-9.805664496093987
1779786631299745800,10.332745849609376,0.11264087527394294,0.07424735410090069,-9.805722363761067
1779786631309827800,10.342827880859375,0.11311928817434236,0.06653407174325547,-9.80577321716547
1779786631319910000,10.352909912109375,0.11305890888976863,0.05910690828403457,-9.805818225350976
1779786631329992000,10.362991943359376,0.11305873535983264,0.052904204019275494,-9.805855050230026
1779786631340073700,10.37307373046875,0.11282366622863337,0.048395489856600755,-9.805880184671283
1779786631350155800,10.38315576171875,0.11088030447536147,0.04625247734538279,-9.805912333375215
1779786631360237800,10.39323779296875,0.10647678141994402,0.04731130221593193,-9.80595734156072
1779786631370320000,10.40331982421875,0.10119126049876212,0.051200993997696786,-9.80599416643977
1779786631380402000,10.41340185546875,0.09760668001025914,0.05704705314477905,-9.80599767357111
1779786631390484000,10.42348388671875,0.09530433961832896,0.06425055021622683,-9.80597721530497
1779786631400565800,10.433565673828125,0.094082341809012,0.07175846902776975,-9.805935714250802
1779786631410647800,10.443647705078124,0.0944304063280113,0.07872007450158708,-9.805880769193172
1779786631420729900,10.453729736328125,0.09572474785433151,0.08511134644127451,-9.805814133697748
1779786631430812000,10.46381201171875,0.09657732782936654,0.0913385047272779,-9.805750420811771
1779786631440894000,10.47389404296875,0.09658468915191479,0.09737155608013272,-9.805691384100914
1779786631450976000,10.48397607421875,0.09600864282962865,0.10340467136506921,-9.805635269999504
1779786631461057800,10.494057861328125,0.09500594119364396,0.10985067829983308,-9.805575064244866
1779786631471139800,10.504139892578126,0.0928471648577135,0.11596074954480863,-9.805526548928022
1779786631481222000,10.514221923828124,0.0886351823190227,0.12152454855125397,-9.805494984745978
1779786631491304000,10.524303955078125,0.0832241261888761,0.12680930228745563,-9.805477449089288
1779786631501386000,10.534385986328125,0.07800742358705029,0.13160083827977068,-9.80545699082315
1779786631511468000,10.544468017578126,0.07379637719669845,0.1357239004259929,-9.805433609947562
1779786631521549800,10.5545498046875,0.06995645197394769,0.13934161599911749,-9.805410229071974
1779786631531631900,10.5646318359375,0.06703042215914465,0.14230697774388826,-9.805388601762056
1779786631541714000,10.5747138671875,0.06612425339992624,0.14425117974737658,-9.805366389930247
1779786631551796000,10.5847958984375,0.06653250084067694,0.1453271201495081,-9.805348854273557
1779786631561878000,10.5948779296875,0.06586147884447127,0.1454688941072207,-9.805348854273557
1779786631571960000,10.6049599609375,0.06452999734526965,0.14441834387467242,-9.805373988714814
1779786631582041900,10.615041748046876,0.0630762320401147,0.14237670937869698,-9.805414905247092
1779786631592124000,10.6251240234375,0.06090453229052946,0.13997697302689774,-9.805463420563935
1779786631602206000,10.6352060546875,0.05878831645469181,0.13738673733798787,-9.80551193588078
1779786631612288000,10.6452880859375,0.059010854897880924,0.1351797836119309,-9.805541161975263
1779786631622370000,10.6553701171875,0.061495442821807224,0.13410449166377075,-9.805540577453375
1779786631632451800,10.665451904296875,0.06513787727765738,0.13437176429782993,-9.80551310492456
1779786631642534000,10.675533935546875,0.06894589125849306,0.1355441051459871,-9.805471019348502
1779786631652615700,10.68561572265625,0.07067673820566851,0.1376849439664278,-9.805428349250555
1779786631662697700,10.69569775390625,0.07082026116247288,0.1403540901104454,-9.805388601762056
1779786631672779800,10.70577978515625,0.07084807618458289,0.14282007836517877,-9.805354114970564
1779786631682861800,10.71586181640625,0.07140448622463737,0.14421950596747918,-9.805330734094976
1779786631692944000,10.72594384765625,0.07385518101211637,0.14489593479116447,-9.805302092522382
1779786631703026000,10.73602587890625,0.07843456295793876,0.14429057104284873,-9.805275204515457
1779786631713107700,10.746107666015625,0.08444700991418212,0.14237670937869698,-9.805253577205539
1779786631723189800,10.756189697265626,0.09022268897248431,0.13908773256959392,-9.805249485552311
1779786631733271800,10.766271728515624,0.09432625183379277,0.134891468189843,-9.805270528340339
1779786631743353900,10.776353759765625,0.09645656012706458,0.13025409071277827,-9.805310275828838
1779786631753436000,10.786435791015625,0.09648700093110091,0.12467824507551267,-9.805383925586938
1779786631763518000,10.79651806640625,0.09546020603347569,0.11875249002203345,-9.805467512217163
1779786631773599700,10.806599853515625,0.09413240976212546,0.11303790263435802,-9.805547591716051
1779786631783681800,10.816681884765625,0.09259688902422786,0.1075215868982952,-9.805624748605489
1779786631793763800,10.826763916015626,0.09270563749517313,0.10142620176579803,-9.805687876969575
1779786631803846000,10.836845947265624,0.09451201106370426,0.09416279576723463,-9.805742237505315
1779786631813928000,10.846927978515625,0.0954769105731044,0.08668833170072175,-9.805802443259953
1779786631824010000,10.857010009765625,0.09335161638166754,0.07945110132303089,-9.80588427632451
1779786631834091800,10.867091796875,0.08988164784931577,0.0724409029005561,-9.805970785564183
1779786631844173800,10.877173828125,0.08774690997609869,0.066091853534244,-9.806035667493939
1779786631854255000,10.887255126953125,0.0867138223350048,0.06005440456748474,-9.806084182810784
1779786631864337200,10.897337158203126,0.08695758622931316,0.054768454388040115,-9.806112239861488
1779786631874419200,10.907419189453124,0.08878356868061237,0.049687210167571896,-9.806123345777392
1779786631884501200,10.917501220703125,0.09202318078950047,0.044912113853404295,-9.806116331514716
1779786631894583300,10.927583251953125,0.09702790287476963,0.040926834476366636,-9.806085936376451
1779786631904665300,10.937665283203126,0.10363914684122427,0.03797203750809421,-9.806029822275041
1779786631914747100,10.9477470703125,0.11129726037895306,0.03652339590262854,-9.805950911819934
1779786631924829200,10.9578291015625,0.11881963697411119,0.03676874896582449,-9.80586264901459
1779786631934911200,10.9679111328125,0.1247903362810146,0.03870866523655131,-9.805780815950035
1779786631944993300,10.9779931640625,0.12892882432523184,0.04241448378481436,-9.805710673323274
1779786631955075300,10.988075439453125,0.1301159974163398,0.04752343799611553,-9.805671510356664
1779786631965157400,10.998157470703125,0.12797672949847763,0.05389081303698476,-9.805668003225327
1779786631975239200,11.0082392578125,0.12407676291787065,0.06057242795906495,-9.80567910914123
1779786631985321200,11.0183212890625,0.11947265752274543,0.06734183076245244,-9.805690799579024
1779786631995403300,11.0284033203125,0.11484081473732366,0.07402694824929348,-9.805698398363589
1779786632005485300,11.0384853515625,0.10974108044551685,0.08082913907743058,-9.805703074538707
1779786632015567400,11.0485673828125,0.10302162686423398,0.08829399506538174,-9.805711842367053
1779786632025649400,11.0586494140625,0.09516854787683114,0.09672378709535114,-9.805710673323274
1779786632035731200,11.068731201171875,0.08742876567132771,0.10608148022573441,-9.805685538882017
1779786632045813200,11.078813232421876,0.07914075673222541,0.11548618170246482,-9.805650467568636
1779786632055895300,11.088895263671875,0.07026416164967231,0.12423375271102413,-9.805610720080137
1779786632065977300,11.098977294921875,0.0643602942010155,0.1320369372752495,-9.80554817623794
1779786632076059400,11.109059326171876,0.06428114171731285,0.138472769875871,-9.805460497954487
1779786632086141400,11.119141357421874,0.06901311584238429,0.14361576792066916,-9.805355868536234
1779786632096223200,11.12922314453125,0.07580076212193816,0.1478203800036572,-9.805241886767744
1779786632106305300,11.13930517578125,0.08246632095836103,0.15095997493732718,-9.805141933524608
1779786632116388400,11.149388427734374,0.08920834256447852,0.15237160443407483,-9.805061854025722
1779786632126470400,11.159470458984375,0.09774476417354308,0.15194121366017496,-9.804985866180061
1779786632136552400,11.169552490234375,0.10793347390112466,0.1495728222947102,-9.8049157235533
1779786632146634200,11.17963427734375,0.11814069653293117,0.14435271302624605,-9.80487714510858
1779786632156716300,11.18971630859375,0.12629208261347374,0.13609768390813842,-9.804892927199601
1779786632166798300,11.19979833984375,0.1328831605747342,0.12512166886092163,-9.80495196391046
1779786632176880400,11.20988037109375,0.14056289228922686,0.11204363090000115,-9.805003401836752
1779786632186962400,11.21996240234375,0.15025405515767634,0.09808464538608677,-9.80500983157754
1779786632197044500,11.23004443359375,0.16159208105085418,0.08317765669864602,-9.804966576957701
1779786632207126300,11.240126220703125,0.17347413242654874,0.06706338371383026,-9.804887081980704
1779786632217208000,11.2502080078125,0.1848038836817257,0.05168822495879139,-9.804771931168437
1779786632227290000,11.2602900390625,0.19496523047834632,0.03742807367437053,-9.804641582787037
1779786632237372200,11.2703720703125,0.20103254942698404,0.023844951718545053,-9.80456091876626
1779786632247454200,11.2804541015625,0.20404133932152763,0.012040776468208059,-9.80452058675587
1779786632257536300,11.290536376953124,0.20631651771189644,0.003159984986561176,-9.804479670223593
1779786632267618300,11.300618408203125,0.206518068165984,-0.00248473747933167,-9.804476163092255
1779786632277700000,11.3107001953125,0.20287256953679023,-0.004368277070455951,-9.804549812850356
1779786632287782100,11.3207822265625,0.19453909575445577,-0.002765215513191651,-9.804718739676474
1779786632297864200,11.3308642578125,0.179837621310167,0.001530298143269465,-9.805000479227305
1779786632307946200,11.3409462890625,0.16044820824535563,0.0071131507652287835,-9.805335994791983
1779786632318028300,11.3510283203125,0.14158246286162174,0.012682726491912034,-9.805619487908482
1779786632328110300,11.3611103515625,0.1258112676934339,0.01834401735634892,-9.80582757770121
1779786632338192100,11.371192138671875,0.11118669441025704,0.023276903756335378,-9.805991828352212
1779786632348274200,11.381274169921875,0.09520737291672267,0.02625474824005505,-9.806152571871877
1779786632358356200,11.391356201171876,0.07880401732483878,0.027190937678201587,-9.80629577973485
1779786632368438300,11.401438232421874,0.06525773166450671,0.02706089069090085,-9.806396317499875
1779786632378520300,11.411520263671875,0.05494445027576293,0.0258550562818069,-9.806461783951521
1779786632388602400,11.421602294921875,0.048234134415583683,0.023664841344708108,-9.806502700483799
1779786632398684200,11.43168408203125,0.043399741095653734,0.02148677806970663,-9.806530757534503
1779786632408766200,11.44176611328125,0.03729227508300682,0.01943628669712925,-9.806560568150877
1779786632418848300,11.45184814453125,0.029646091728378086,0.018006049539678496,-9.806589209723471
1779786632428930300,11.461930419921876,0.02209518544176826,0.017338099708326626,-9.80661142155528
1779786632439013000,11.47201318359375,0.015949725506291725,0.01761361729763448,-9.806622527471184
1779786632449095200,11.48209521484375,0.01112566977564129,0.018604489215218928,-9.806626619124412
1779786632459177200,11.49217724609375,0.007602719243059982,0.01973062315133866,-9.806628372690081
1779786632469259300,11.50225927734375,0.004033300932715065,0.02127456237442093,-9.806626034602523
1779786632479341300,11.51234130859375,-0.00017385191537414358,0.023244896616297774,-9.806621942949295
1779786632489423400,11.52242333984375,-0.004336381811561296,0.025948075177369172,-9.806613759642838
1779786632499505400,11.53250537109375,-0.008605882103348266,0.02898156340504065,-9.806604407292603
1779786632509587200,11.542587158203125,-0.013568055675789946,0.03159203359780367,-9.806589209723471
1779786632519669200,11.552669189453125,-0.019321549160103313,0.034072803863137956,-9.806571674066781
1779786632529751300,11.562751220703126,-0.02631745876232162,0.03639022994305705,-9.806545955103635
1779786632539833300,11.572833251953124,-0.03511333502517082,0.03855125531828962,-9.806511468312143
1779786632549915400,11.582915283203125,-0.045535949406749564,0.04141486915505957,-9.806457692298293
1779786632559997400,11.59299755859375,-0.0576741903334856,0.04445866643090266,-9.806380535408854
1779786632570079200,11.603079345703126,-0.06988865200132131,0.04711510379039682,-9.806289349994064
1779786632580161300,11.613161376953125,-0.08123715362274088,0.04963570374262053,-9.806188227707146
1779786632590243300,11.623243408203125,-0.09188248454402201,0.0516468289359007,-9.806084182810784
1779786632600325400,11.633325439453126,-0.10264512170203961,0.05293968175803311,-9.805969616520404
1779786632610407400,11.643407470703124,-0.11357173551642336,0.05330159670587163,-9.80584745144546
1779786632620489500,11.653489501953125,-0.12379919721866026,0.05284554633432999,-9.805725286370516
1779786632630571300,11.6635712890625,-0.1328057022911962,0.052041737404465674,-9.805612473645805
1779786632640653300,11.6736533203125,-0.13961993975015358,0.05039433095704298,-9.805526548928022
1779786632650735400,11.6837353515625,-0.14370498057408257,0.04808496260270476,-9.805478618133067
1779786632660817200,11.693817138671875,-0.14634265386760234,0.045289714994141826,-9.805452899169921
1779786632670899200,11.703899169921876,-0.14954844590527935,0.04210053159797098,-9.80541899690032
1779786632680981200,11.713981201171874,-0.1532618038726039,0.038568512413767166,-9.805375742280482
1779786632691063000,11.72406298828125,-0.15558831059141084,0.03514459096324863,-9.805354114970564
1779786632701146400,11.734146484375,-0.15731632169410587,0.03207176623903215,-9.805335994791983
1779786632711228400,11.744228515625,-0.15941186920125036,0.02941304102432914,-9.805309106785058
1779786632721310500,11.754310546875,-0.16153238675286993,0.027153311364841646,-9.805282218778133
1779786632731392300,11.764392333984375,-0.16372039831643923,0.025988793063536283,-9.8052500700742
1779786632741474000,11.77447412109375,-0.16632183125279842,0.02560684682453284,-9.805207984498143
1779786632751556000,11.78455615234375,-0.16864037386085837,0.025445870409428605,-9.805168237009644
1779786632761638100,11.79463818359375,-0.17118275182005016,0.025674945907969957,-9.805121475258469
1779786632771720200,11.80472021484375,-0.1756409550716169,0.026643676775693893,-9.805040226715803
1779786632781802200,11.81480224609375,-0.18189674579706042,0.027986451420467344,-9.804922737815975
1779786632791884300,11.82488427734375,-0.18992696231650188,0.030078236067947,-9.80476608594954
1779786632801966000,11.834966064453125,-0.19794499520780517,0.03233457504381659,-9.80459891268909
1779786632812048100,11.845048095703126,-0.20337969707502052,0.03397375480229966,-9.804483177354932
1779786632822130200,11.855130126953124,-0.20316475741639733,0.034761614961072336,-9.804484346398711
1779786632832212200,11.865212158203125,-0.1975614940492436,0.03455294749632012,-9.80459891268909
1779786632842294300,11.875294189453125,-0.1894059706497006,0.033761751452856696,-9.8047625788182
1779786632852376600,11.88537646484375,-0.18138386437147855,0.0327992037307471,-9.804916308075189
1779786632862458600,11.895458740234375,-0.1761377256126143,0.031211811241717076,-9.805017430362104
1779786632872540700,11.905540771484375,-0.1724032883246429,0.028781264193123206,-9.805092249163984
1779786632882622700,11.915622802734376,-0.16678672708449885,0.026068135060195344,-9.805198047626018
1779786632892704800,11.925704833984375,-0.15923165379613638,0.023540735474426762,-9.805328396007418
1779786632902786800,11.935786865234375,-0.15242678695372305,0.021803614050091707,-9.805441208732127
1779786632912868900,11.945868896484376,-0.14816322949142194,0.0217935082146083,-9.805506675183773
1779786632922951700,11.95595166015625,-0.14749362313416786,0.023736666755191982,-9.805512520402669
1779786632933033700,11.96603369140625,-0.15110322846607305,0.027802073580177965,-9.805447638472915
1779786632943115800,11.97611572265625,-0.15841803585831074,0.03324078490223037,-9.805314952003956
1779786632953197800,11.98619775390625,-0.16757964929416774,0.03967814958952367,-9.80513842639327
1779786632963279600,11.996279541015625,-0.17597625144058837,0.046278155209333635,-9.804962485304474
1779786632973361700,12.006361572265625,-0.18347431557839736,0.05221760542802512,-9.804795896565913
1779786632983443700,12.016443603515626,-0.1898603268210776,0.05708750845275353,-9.804646258962153
1779786632993525800,12.02652587890625,-0.19477442061398179,0.0605352057877928,-9.804529354584217
1779786633003607800,12.03660791015625,-0.19820949136288835,0.062013466213387436,-9.804452197694777
1779786633013689600,12.046689697265625,-0.19976674900855868,0.06103875312944874,-9.804425894209741
1779786633023771600,12.056771728515624,-0.20049513634834437,0.05783292455915361,-9.80442940134108
1779786633033853400,12.066853515625,-0.1990763555916026,0.05252557083207648,-9.804489022573827
1779786633043935500,12.076935546875,-0.19494409635877236,0.045153119535045694,-9.804608265039324
1779786633054017500,12.087017578125,-0.1901260102862492,0.03608866459704004,-9.804740366986394
1779786633064099600,12.097099609375,-0.18756721091521902,0.026536028849869032,-9.804819861963392
1779786633074181600,12.107181640625,-0.18729380080131813,0.016962620884372153,-9.804846749970316
1779786633084263700,12.117263671875,-0.18864795535663142,0.0075822472771891625,-9.804831552401184
1779786633094345500,12.127345458984376,-0.1904499084783718,-0.001642704157191474,-9.804799988219141
1779786633104428500,12.137428466796875,-0.19005778562193734,-0.010619219232490285,-9.80480115726292
1779786633114510600,12.147510498046875,-0.18649306061137466,-0.018296295482304412,-9.80485902493
1779786633124592600,12.157592529296876,-0.18232103562373667,-0.024779225477529688,-9.804923906859756
1779786633134674400,12.16767431640625,-0.1794209668006748,-0.030228038068488238,-9.804962485304474
1779786633144756500,12.177756591796875,-0.176411756781023,-0.035083312062954064,-9.805001648271084
1779786633154838500,12.187838623046876,-0.17204411788973956,-0.03935483591929078,-9.805061269503831
1779786633164920600,12.197920654296874,-0.16619341910015792,-0.042851742690918036,-9.805147194221615
1779786633175002600,12.208002685546875,-0.1595282986551523,-0.04507855189491529,-9.805249485552311
1779786633185084700,12.218084716796875,-0.1515279018852394,-0.04588800968085415,-9.805371650627254
1779786633195166500,12.22816650390625,-0.14164618488075212,-0.045028054683539084,-9.805523626318573
1779786633205248500,12.23824853515625,-0.13034865539474413,-0.04302698509339243,-9.805687876969575
1779786633215330600,12.24833056640625,-0.11806835281592792,-0.039841222063591704,-9.805859141883253
1779786633225412600,12.25841259765625,-0.10524793374473228,-0.0360301484759897,-9.806020469924807
1779786633235494700,12.26849462890625,-0.09300846549980342,-0.03175407402541022,-9.806156663525105
1779786633245576700,12.27857666015625,-0.0817195577116683,-0.026787909835262688,-9.806272398859262
1779786633255658800,12.28865869140625,-0.07199894498644861,-0.02080178234707564,-9.806362999752164
1779786633265740500,12.298740478515626,-0.06578160940813832,-0.013858501406171125,-9.806419113853574
1779786633275823600,12.30882373046875,-0.06358534147287719,-0.0062320810562931,-9.80644191020727
1779786633285905700,12.31890576171875,-0.06526797449730802,0.0017146892551740164,-9.806432557857036
1779786633295987700,12.32898779296875,-0.06949521853721234,0.008595103839362855,-9.806399824631214
1779786633306069500,12.339069580078124,-0.07300996692620683,0.01369984138738364,-9.80636884497106
1779786633316151600,12.349151611328125,-0.07457343511695508,0.01716964095637668,-9.80635014027059
1779786633326233600,12.359233642578126,-0.07597324174516834,0.01917137270022649,-9.806336696267127
1779786633336315600,12.369315673828124,-0.0800209371002391,0.02016350270984694,-9.806303963041305
1779786633346397700,12.379397705078125,-0.08777133203130215,0.020561874927266036,-9.806234989458321
1779786633356479700,12.389479736328125,-0.09744916049414314,0.020338199406338388,-9.806144388565421
1779786633366561500,12.3995615234375,-0.10490972389946691,0.019187937959248665,-9.80607015428543
1779786633376643600,12.4096435546875,-0.10645231369896792,0.017639274611987638,-9.806056125760078
1779786633386725600,12.4197255859375,-0.10050042869038879,0.01546624142184155,-9.806122761255502
1779786633396807700,12.4298076171875,-0.08942618656624109,0.012802975887694627,-9.806233820414542
1779786633406889700,12.4398896484375,-0.07752967740693129,0.009662303241790505,-9.806339034354686
1779786633416971800,12.4499716796875,-0.06672698679973836,0.006320110966195352,-9.806420867419241
1779786633427053600,12.460053466796875,-0.05642758780587464,0.0034807439422263995,-9.806488087436556
1779786633437136600,12.47013671875,-0.04819009891103487,0.0015211786884749016,-9.806532511100173
1779786633447218700,12.48021875,-0.042085973349655977,0.00033785301006391817,-9.806560568150877
1779786633457300700,12.49030078125,-0.037807184068893544,0.0002863631389551301,-9.806577519285678
1779786633467382800,12.5003828125,-0.0355286423943704,0.0015215637080204032,-9.806584533548355
1779786633477464600,12.510464599609374,-0.03526828355828766,0.004264971103375137,-9.806584533548355
1779786633487546600,12.520546630859375,-0.03694357580976793,0.00806908551263914,-9.8065763502419
1779786633497628700,12.530628662109375,-0.04082861196601297,0.012877945386624196,-9.80655706101954
1779786633507710700,12.540710693359374,-0.04638418200023006,0.018488864620559615,-9.806522574228048
1779786633517792800,12.550792724609375,-0.05238771499765571,0.025275432046235072,-9.806478150564432
1779786633527874800,12.560874755859375,-0.057534877760917875,0.03247944970749086,-9.806427881681918
1779786633537956600,12.57095654296875,-0.06245191242957953,0.03940689490009099,-9.806372352102398
1779786633548038700,12.58103857421875,-0.06667597813170868,0.045403957057534715,-9.806317991566658
1779786633558120700,12.59112060546875,-0.07031880987978074,0.050258548348699694,-9.806269476249813
1779786633568203800,12.601203857421876,-0.07551803162384312,0.05380125789027661,-9.806211608582734
1779786633578285600,12.61128564453125,-0.0817352576042991,0.055737938741012474,-9.806150818306207
1779786633588367600,12.62136767578125,-0.08867116694785654,0.05615731036397628,-9.806088274464011
1779786633598449700,12.63144970703125,-0.09679647787222638,0.055415625151200215,-9.80601462470591
1779786633608531700,12.64153173828125,-0.10669392216880805,0.05403749606525525,-9.80592110120356
1779786633618613800,12.65161376953125,-0.11666310739419422,0.05070594962290488,-9.80582582413554
