time,seconds_elapsed,z,y,x
1779786621036473600,0.0694736328125,-0.061628833413124084,-0.14910836517810822,0.199702650308609
1779786621046555400,0.079555419921875,0.06215223670005798,-0.19484815001487732,0.29853150248527527
1779786621056636700,0.08963671875,-0.09609993547201157,-0.21130339801311493,0.32521629333496094
1779786621066718500,0.099718505859375,0.04893981292843819,-0.18748702108860016,0.3148033320903778
1779786621076800500,0.109800537109375,-0.05866917222738266,-0.14477556943893433,0.2596319019794464
1779786621086881300,0.11988134765625,0.09459947794675827,-0.1094261035323143,0.22188372910022736
1779786621096963300,0.12996337890625,-0.00711478665471077,-0.10910382866859436,0.1909601241350174
1779786621107045400,0.14004541015625,0.1029248982667923,-0.10778290033340454,0.17939241230487823
1779786621117126400,0.15012646484375,0.005520292092114687,-0.12700316309928894,0.16919775307178497
1779786621127208400,0.16020849609375,0.08276847749948502,-0.171229749917984,0.19554360210895538
1779786621137290500,0.17029052734375,-0.007346766069531441,-0.2259015142917633,0.22211621701717377
1779786621147371500,0.18037158203125,0.04128601774573326,-0.2067408561706543,0.2465057075023651
1779786621157453600,0.19045361328125,-0.03232601657509804,-0.15397858619689941,0.24897585809230804
1779786621167534600,0.20053466796875,-0.03361951559782028,-0.09566947817802429,0.221374049782753
1779786621177616600,0.21061669921875,-0.09389716386795044,-0.03183816745877266,0.16000819206237793
1779786621187698700,0.22069873046875,-0.10049888491630554,0.028968987986445427,0.09275779128074646
1779786621197779500,0.230779541015625,-0.0909605324268341,0.07623936980962753,0.03098302334547043
1779786621207861500,0.240861572265625,-0.07493948936462402,0.059689417481422424,-0.02022636868059635
1779786621217943600,0.250943603515625,-0.03501952067017555,-0.0020183867309242487,-0.029425036162137985
1779786621228024600,0.261024658203125,-0.0721043050289154,-0.03412545472383499,0.002481764415279031
1779786621238106400,0.2711064453125,-0.061827950179576874,-0.03496944531798363,0.05250468850135803
1779786621248188400,0.2811884765625,-0.10488194227218628,-0.015385091304779053,0.09208511561155319
1779786621258269400,0.29126953125,-0.12255299836397171,-0.01117027085274458,0.12574364244937897
1779786621268351500,0.3013515625,-0.13396304845809937,-0.041919395327568054,0.14183738827705383
1779786621278433500,0.31143359375,-0.141305610537529,-0.06463116407394409,0.13310016691684723
1779786621288514600,0.3215146484375,-0.13843339681625366,-0.04290323331952095,0.09709236770868301
1779786621298596600,0.3315966796875,-0.13906095921993256,0.0019262535497546196,0.0466739647090435
1779786621308678700,0.3416787109375,-0.14518782496452332,0.09441224485635757,0.010725283995270729
1779786621318759400,0.351759521484375,-0.1589144766330719,0.1911383718252182,-0.005171771161258221
1779786621328841500,0.361841552734375,-0.1684560477733612,0.2561567723751068,-0.0103718601167202
1779786621338923500,0.371923583984375,-0.1675521284341812,0.25473883748054504,-0.01504562795162201
1779786621349004500,0.382004638671875,-0.14825433492660522,0.22352471947669983,0.004483599215745926
1779786621359086600,0.392086669921875,-0.13269200921058655,0.18238577246665955,0.03444712609052658
1779786621369168600,0.402168701171875,-0.12402660399675369,0.1140674352645874,0.05967338755726814
1779786621379249700,0.412249755859375,-0.12956789135932922,0.018540184944868088,0.06025121361017227
1779786621389331500,0.42233154296875,-0.14787524938583374,-0.05490979924798012,0.019759712740778923
1779786621399413500,0.43241357421875,-0.12987902760505676,-0.02927241101861,-0.034820158034563065
1779786621409494500,0.44249462890625,-0.11976435780525208,0.03264102339744568,-0.09814906120300293
1779786621419576300,0.452576416015625,-0.11368730664253235,0.10021238029003143,-0.14615678787231445
1779786621429658400,0.462658447265625,-0.10923183709383011,0.19232818484306335,-0.17474102973937988
1779786621439739400,0.472739501953125,-0.10469456762075424,0.2666178047657013,-0.20009583234786987
1779786621449821400,0.482821533203125,-0.1126563549041748,0.25037065148353577,-0.21194422245025635
1779786621459903500,0.492903564453125,-0.1431170105934143,0.1898677945137024,-0.24108754098415375
1779786621469984500,0.502984619140625,-0.17933706939220428,0.0902450680732727,-0.28112977743148804
1779786621480066600,0.513066650390625,-0.1751178354024887,0.0977967232465744,-0.2287340760231018
1779786621490148600,0.523148681640625,-0.20043836534023285,0.052323780953884125,-0.15654616057872772
1779786621500229600,0.533229736328125,-0.2056788057088852,0.024201631546020508,-0.06402426213026047
1779786621510311700,0.543311767578125,-0.21077290177345276,-0.004009765572845936,-0.000613063108175993
1779786621520393700,0.553393798828125,-0.2185829132795334,-0.0705496072769165,-0.00527622876688838
1779786621530474500,0.563474609375,-0.20519201457500458,-0.10312965512275696,-0.05987768992781639
1779786621540556500,0.573556640625,-0.15032066404819489,-0.0865016058087349,-0.13008156418800354
1779786621550638300,0.583638427734375,-0.03734910860657692,0.0018719267100095749,-0.21131597459316254
1779786621560719600,0.5937197265625,0.044199466705322266,0.17727427184581757,-0.2579631209373474
1779786621570801400,0.603801513671875,0.05866415798664093,0.3664311468601227,-0.2743375599384308
1779786621580882400,0.61388232421875,0.04774037003517151,0.4879869520664215,-0.17453087866306305
1779786621590964500,0.623964599609375,-0.05544087663292885,0.4388399124145508,0.07535938173532486
1779786621601046500,0.634046630859375,-0.088422030210495,0.24451309442520142,0.17417177557945251
1779786621611127600,0.64412744140625,-0.030234089121222496,0.05711550638079643,0.23315413296222687
1779786621621209600,0.654209716796875,0.08232446014881134,-0.136504128575325,0.29871228337287903
1779786621631291600,0.664291748046875,0.20213130116462708,-0.21433980762958527,0.35724854469299316
1779786621641372400,0.674372314453125,0.30285730957984924,-0.11483624577522278,0.40148016810417175
1779786621651454500,0.684454345703125,0.3645515441894531,0.0791127160191536,0.43299999833106995
1779786621661536500,0.69453662109375,0.40861520171165466,0.20552462339401245,0.4091493487358093
1779786621671617500,0.704617431640625,0.43450966477394104,0.2242136150598526,0.31342947483062744
1779786621681699600,0.714699462890625,0.4565713703632355,0.19042056798934937,0.12134204804897308
1779786621691781600,0.72478173828125,0.46949276328086853,0.1746852695941925,-0.06835997849702835
1779786621701862700,0.734862548828125,0.4221901595592499,0.13390925526618958,-0.13784626126289368
1779786621711944700,0.74494482421875,0.3318062126636505,0.05757134035229683,-0.07860423624515533
1779786621722026500,0.755026611328125,0.2297065556049347,-0.056924812495708466,-0.0004154425114393234
1779786621732107500,0.765107421875,0.1785901039838791,-0.10317326337099075,0.011027893982827663
1779786621742189300,0.775189208984375,0.14108926057815552,-0.024201586842536926,-0.05988410860300064
1779786621752271400,0.785271240234375,0.0897994413971901,0.07065781950950623,-0.11268846690654755
1779786621762352400,0.795352294921875,0.05426938831806183,0.12996512651443481,-0.07757638394832611
1779786621772434400,0.805434326171875,0.021130075678229332,0.09615202248096466,-0.0202875304967165
1779786621782516500,0.8155166015625,0.008296439424157143,0.004051658790558577,0.009987615048885345
1779786621792597500,0.825597412109375,-0.013319106772542,-0.06342592090368271,-0.010402876883745193
1779786621802679600,0.835679443359375,-0.0005066851153969765,-0.08647974580526352,-0.048399195075035095
1779786621812761600,0.84576171875,-0.017130136489868164,-0.056060586124658585,-0.08643472194671631
1779786621822842600,0.855842529296875,-0.026703638955950737,-0.013505198061466217,-0.15156596899032593
1779786621832924700,0.865924560546875,-0.025538772344589233,-0.008504847064614296,-0.2225690335035324
1779786621843007000,0.876007080078125,0.00559987360611558,0.051340311765670776,-0.17743323743343353
1779786621853088300,0.886088134765625,-0.004077787511050701,0.19408681988716125,-0.022970695048570633
1779786621863170000,0.896170166015625,-0.0363527350127697,0.25680285692214966,0.1765216588973999
1779786621873252000,0.906252197265625,-0.05217510834336281,0.20146210491657257,0.35889625549316406
1779786621883333000,0.9163330078125,-0.04045549035072327,0.09858661890029907,0.43520867824554443
1779786621893415200,0.926415283203125,-0.0070951334200799465,0.049007613211870193,0.42083215713500977
1779786621903496000,0.936495849609375,0.04777692258358002,0.05564577877521515,0.3594348132610321
1779786621913578000,0.946577880859375,0.101023368537426,0.08489900082349777,0.3067218065261841
1779786621923660000,0.956659912109375,0.13346169888973236,0.13052168488502502,0.28849315643310547
1779786621933741000,0.966740966796875,0.142531618475914,0.19031018018722534,0.29455825686454773
1779786621943823000,0.976822998046875,0.15009422600269318,0.2576148808002472,0.3276398777961731
1779786621953905200,0.9869052734375,0.16221027076244354,0.31500548124313354,0.3789962828159332
1779786621963986200,0.996986083984375,0.1754983365535736,0.31728312373161316,0.42302706837654114
1779786621974068200,1.007068115234375,0.18167872726917267,0.26433122158050537,0.451725572347641
1779786621984150300,1.017150390625,0.18714983761310577,0.1850416213274002,0.4617728590965271
1779786621994231300,1.027231201171875,0.18959969282150269,0.12702998518943787,0.45700952410697937
1779786622004313300,1.037313232421875,0.1731153279542923,0.09444736689329147,0.42433789372444153
1779786622014395100,1.04739501953125,0.1541922390460968,0.07291757315397263,0.3614068627357483
1779786622024476200,1.05747607421875,0.13680928945541382,0.05250518023967743,0.26924052834510803
1779786622034558000,1.067557861328125,0.12195257097482681,0.028783338144421577,0.19098088145256042
1779786622044640000,1.077639892578125,0.10199542343616486,0.002949007786810398,0.125408336520195
1779786622054721000,1.087720947265625,0.06762706488370895,-0.018949100747704506,0.06975358724594116
1779786622064803000,1.097802978515625,0.03827947750687599,-0.0017934087663888931,-0.004447816871106625
1779786622074885000,1.107885009765625,0.01582077518105507,0.05286717042326927,-0.11137639731168747
1779786622084966100,1.117966064453125,-0.000723567558452487,0.11300134658813477,-0.21454966068267822
1779786622095048200,1.128048095703125,-0.002812018385156989,0.16710425913333893,-0.26819878816604614
1779786622105130200,1.138130126953125,-0.02247665263712406,0.22573904693126678,-0.26654571294784546
1779786622115211300,1.148211181640625,-0.03575197607278824,0.27890291810035706,-0.2263128012418747
1779786622125293300,1.158293212890625,-0.04296325519680977,0.31508615612983704,-0.16247181594371796
1779786622135374000,1.1683740234375,-0.04488925263285637,0.3260568082332611,-0.1322324126958847
1779786622145456000,1.1784560546875,-0.029068823903799057,0.31125351786613464,-0.1174130067229271
1779786622155538200,1.1885380859375,-0.01886252500116825,0.3009856939315796,-0.11162036657333374
1779786622165619200,1.198619140625,0.0053655472584068775,0.2946802079677582,-0.11536991596221924
1779786622175701200,1.208701171875,0.037883274257183075,0.299622505903244,-0.08766824752092361
1779786622185783000,1.218782958984375,0.08669913560152054,0.23908381164073944,0.05299309268593788
1779786622195864300,1.2288642578125,0.02665816619992256,0.017422258853912354,0.3552536070346832
1779786622205946000,1.238946044921875,-0.026619482785463333,-0.08307415246963501,0.37008097767829895
1779786622216028200,1.249028076171875,-0.056298546493053436,-0.16168081760406494,0.1751287877559662
1779786622226109000,1.25910888671875,0.01920572854578495,-0.10679985582828522,-0.01801273413002491
1779786622236191000,1.26919091796875,0.06735967844724655,-0.03673262149095535,-0.1115243136882782
1779786622246273000,1.27927294921875,0.07503751665353775,-0.03043973632156849,-0.05593021214008331
1779786622256354000,1.28935400390625,0.043719008564949036,-0.1241246834397316,0.08203937858343124
1779786622266436000,1.29943603515625,-0.007791350595653057,-0.29136475920677185,0.2025919407606125
1779786622276518100,1.30951806640625,-0.050600335001945496,-0.43121132254600525,0.21861538290977478
1779786622286599200,1.31959912109375,-0.05042075365781784,-0.4980834722518921,0.12868084013462067
1779786622296681200,1.32968115234375,-0.03579280897974968,-0.5454879999160767,-0.019621549174189568
1779786622306763300,1.33976318359375,-0.015350034460425377,-0.5200470089912415,-0.16884897649288177
1779786622316844300,1.34984423828125,-0.0007322090677917004,-0.4838644862174988,-0.29957395792007446
1779786622326926300,1.35992626953125,0.01894337870180607,-0.5101941227912903,-0.3694044053554535
1779786622337008000,1.370008056640625,0.03888566046953201,-0.5480080842971802,-0.37895825505256653
1779786622347089200,1.380089111328125,0.05655208230018616,-0.5576955080032349,-0.3365432620048523
1779786622357171000,1.3901708984375,0.08228194713592529,-0.49619191884994507,-0.2746838927268982
1779786622367253000,1.4002529296875,0.10802130401134491,-0.3931524157524109,-0.20655076205730438
1779786622377334000,1.410333984375,0.13397833704948425,-0.36551228165626526,-0.1441238671541214
1779786622387416000,1.420416015625,0.18355697393417358,-0.3755234181880951,-0.07239173352718353
1779786622397497000,1.4304970703125,0.24197900295257568,-0.25778642296791077,0.07312764972448349
1779786622407579100,1.4405791015625,0.2945714294910431,-0.049004532396793365,0.2599427402019501
1779786622417661200,1.4506611328125,0.4266495704650879,0.18231816589832306,0.35697636008262634
1779786622427742200,1.4607421875,0.5513891577720642,0.22776012122631073,0.3181149959564209
1779786622437824300,1.47082421875,0.7139730453491211,0.3092927634716034,0.258524626493454
1779786622447906000,1.480906005859375,0.8390007019042969,0.44519391655921936,0.22346533834934235
1779786622457987000,1.490987060546875,0.8758004903793335,0.6701143383979797,0.19326135516166687
1779786622468069000,1.501069091796875,1.0260121822357178,0.8918631672859192,0.22849318385124207
1779786622478151200,1.511151123046875,1.283850073814392,1.0839439630508423,0.29748716950416565
1779786622488232200,1.521232177734375,1.5432567596435547,1.1193071603775024,0.3034798800945282
1779786622498314200,1.531314208984375,1.7099777460098267,0.9111596345901489,0.2306581288576126
1779786622508396000,1.54139599609375,1.79288649559021,0.46193358302116394,0.1656191200017929
1779786622518477300,1.551477294921875,1.813595175743103,0.04472225531935692,0.18011975288391113
1779786622528559000,1.56155908203125,1.8169150352478027,-0.020446261391043663,0.26807019114494324
1779786622538641200,1.57164111328125,1.8480199575424194,0.18826088309288025,0.3395419716835022
1779786622548722000,1.581721923828125,1.906847596168518,0.26233983039855957,0.27217409014701843
1779786622558804000,1.591803955078125,2.0348293781280518,0.34175077080726624,0.04854445159435272
1779786622568886000,1.601885986328125,2.2728350162506104,0.7073487043380737,-0.3439401090145111
1779786622578967000,1.611967041015625,2.4870786666870117,1.3303813934326172,-0.8458250164985657
1779786622589049000,1.622049072265625,2.5537707805633545,1.9660253524780273,-1.3394426107406616
1779786622599131100,1.632131103515625,2.3915669918060303,2.415004014968872,-1.7505617141723633
1779786622609212200,1.642212158203125,2.295766592025757,2.277181625366211,-1.9483376741409302
1779786622619294200,1.652294189453125,2.1577720642089844,2.0975406169891357,-1.9067097902297974
1779786622629375200,1.662375244140625,2.015702962875366,2.027988910675049,-1.7827283143997192
1779786622639457300,1.672457275390625,1.9327917098999023,1.9505265951156616,-1.7599927186965942
1779786622649539300,1.682539306640625,1.9181053638458252,1.8704490661621094,-1.728257179260254
1779786622659620000,1.6926201171875,1.9551955461502075,1.6960309743881226,-1.6605178117752075
1779786622669702100,1.7027021484375,2.0577375888824463,1.4114253520965576,-1.729392409324646
1779786622679784000,1.712783935546875,2.100205421447754,1.420138955116272,-1.904765009880066
1779786622689865200,1.722865234375,2.0611979961395264,1.835066795349121,-2.1010308265686035
1779786622699947000,1.732947021484375,1.8592923879623413,2.4847254753112793,-2.1206984519958496
1779786622710029000,1.743029052734375,1.3815221786499023,3.0973803997039795,-1.8507908582687378
1779786622720110000,1.753110107421875,1.0278868675231934,3.1928725242614746,-1.4847556352615356
1779786622730192100,1.763192138671875,1.2591627836227417,2.7595980167388916,-1.1126898527145386
1779786622740274200,1.773274169921875,1.6397011280059814,2.2089591026306152,-0.8392082452774048
1779786622750355200,1.783355224609375,1.7947884798049927,1.7665607929229736,-0.650245189666748
1779786622760437200,1.793437255859375,1.8345723152160645,1.4761053323745728,-0.6855898499488831
1779786622770519000,1.80351904296875,1.910473346710205,1.2984466552734375,-0.8580324053764343
1779786622780600000,1.81360009765625,2.0504400730133057,0.9354795217514038,-1.0734697580337524
1779786622790682000,1.82368212890625,2.116804361343384,0.47286298871040344,-1.2286386489868164
1779786622800764200,1.83376416015625,2.218669891357422,-0.14277464151382446,-1.3486995697021484
1779786622810845200,1.84384521484375,2.441943645477295,-0.759078323841095,-1.3339017629623413
1779786622820927200,1.85392724609375,2.615809202194214,-1.2899796962738037,-1.1176644563674927
1779786622831009000,1.864009033203125,2.150973320007324,-1.702505350112915,-0.873697817325592
1779786622841090300,1.87409033203125,2.323294162750244,-1.9161187410354614,-0.8171948194503784
1779786622851171600,1.884171630859375,2.3727171421051025,-1.6662989854812622,-0.9153828024864197
1779786622861253400,1.89425341796875,2.117410659790039,-1.307838797569275,-1.0471301078796387
1779786622871334400,1.90433447265625,1.7321821451187134,-0.7978714108467102,-1.1704362630844116
1779786622881416400,1.91441650390625,1.4282089471817017,-0.6096639633178711,-1.2757060527801514
1779786622891497500,1.92449755859375,1.2104352712631226,-0.6186841726303101,-1.2917286157608032
1779786622901579300,1.934579345703125,1.1224733591079712,-0.8525877594947815,-1.2376197576522827
1779786622911661300,1.944661376953125,1.0990854501724243,-1.1917115449905396,-1.0980839729309082
1779786622921742300,1.954742431640625,1.0080211162567139,-1.4530524015426636,-0.8842249512672424
1779786622931824400,1.964824462890625,0.8657585382461548,-1.4839155673980713,-0.5611799359321594
1779786622941906400,1.974906494140625,0.7780827283859253,-1.3796226978302002,-0.21551600098609924
1779786622951987500,1.984987548828125,0.6660747528076172,-1.3531363010406494,-0.10888829827308655
1779786622962069200,1.9950693359375,0.636434018611908,-1.393296241760254,-0.17090345919132233
1779786622972151300,2.0051513671875,0.9479454159736633,-1.715622901916504,-0.5964826345443726
1779786622982232300,2.015232421875,1.30652916431427,-1.7471050024032593,-0.8689464330673218
1779786622992314400,2.025314453125,1.479095220565796,-1.619284987449646,-0.976089358329773
1779786623002396400,2.035396484375,1.4264352321624756,-1.608901858329773,-0.8390145897865295
1779786623012477400,2.0454775390625,1.3893870115280151,-1.7145862579345703,-0.4373694658279419
1779786623022559500,2.0555595703125,1.345852255821228,-1.8627008199691772,-0.028874119743704796
1779786623032641500,2.0656416015625,1.2215938568115234,-2.3180272579193115,0.38231557607650757
1779786623042722600,2.07572265625,1.1978399753570557,-3.152879238128662,0.7073413729667664
1779786623052804400,2.085804443359375,1.2452337741851807,-3.9064509868621826,0.8551063537597656
1779786623062886400,2.095886474609375,1.2742429971694946,-4.258392333984375,0.8171898722648621
1779786623072967200,2.10596728515625,1.3064587116241455,-4.348129749298096,0.6520898342132568
1779786623083049200,2.11604931640625,1.5268763303756714,-4.396763801574707,0.4841897487640381
1779786623093131300,2.12613134765625,1.8953616619110107,-4.298380374908447,0.4640333652496338
1779786623103212300,2.13621240234375,2.1336750984191895,-4.027257442474365,0.4395011067390442
1779786623113294300,2.14629443359375,2.1048707962036133,-3.878767728805542,0.34609317779541016
1779786623123376400,2.15637646484375,1.9762828350067139,-3.814601421356201,0.26142755150794983
1779786623133457400,2.16645751953125,1.887115478515625,-3.6958374977111816,0.18393948674201965
1779786623143539500,2.17653955078125,1.8442758321762085,-3.390132427215576,0.15994280576705933
1779786623153621500,2.18662158203125,1.742362380027771,-2.8051717281341553,0.22610609233379364
1779786623163702500,2.19670263671875,1.6164557933807373,-1.978875756263733,0.31219545006752014
1779786623173784600,2.20678466796875,1.5812063217163086,-1.5211057662963867,0.5038333535194397
1779786623183866600,2.21686669921875,1.4549304246902466,-1.424540400505066,0.6963338255882263
1779786623193947400,2.226947509765625,1.1749868392944336,-1.653331995010376,0.7173923254013062
1779786623204029400,2.237029541015625,0.8927793502807617,-2.093439817428589,0.5072553157806396
1779786623214111200,2.247111328125,0.5756780505180359,-2.7327630519866943,0.17742647230625153
1779786623224192300,2.257192138671875,0.4464705288410187,-2.8954832553863525,-0.13326029479503632
1779786623234274300,2.2672744140625,0.37877142429351807,-2.5412497520446777,-0.43934956192970276
1779786623244356400,2.2773564453125,0.2754881680011749,-2.1685409545898438,-0.5175394415855408
1779786623254437400,2.287437255859375,0.12659785151481628,-2.0631213188171387,-0.49459245800971985
1779786623264519400,2.29751953125,0.033572569489479065,-1.9312199354171753,-0.43491074442863464
1779786623274601500,2.3076015625,0.044837307184934616,-1.660685658454895,-0.4605991840362549
1779786623284682200,2.31768212890625,0.11471652239561081,-1.3653866052627563,-0.5497181415557861
1779786623294764300,2.327764404296875,0.21096478402614594,-1.2659274339675903,-0.6258187294006348
1779786623304846300,2.337846435546875,0.26284292340278625,-1.5674002170562744,-0.6776608824729919
1779786623314927400,2.34792724609375,0.2222416251897812,-2.0309877395629883,-0.6449081301689148
1779786623325009400,2.358009521484375,0.15766023099422455,-2.3602991104125977,-0.4952166676521301
1779786623335091500,2.368091552734375,0.1436014324426651,-2.450054407119751,-0.24734951555728912
1779786623345172500,2.37817236328125,0.1336286962032318,-2.2543442249298096,-0.03229578956961632
1779786623355254500,2.388254638671875,0.11793124675750732,-1.8422367572784424,0.0784105658531189
1779786623365336300,2.39833642578125,0.11223527789115906,-1.4788708686828613,0.09460551291704178
1779786623375417300,2.408417236328125,0.0840468481183052,-1.2340822219848633,0.07512681931257248
1779786623385499400,2.41849951171875,0.060747649520635605,-1.028386116027832,0.06432237476110458
1779786623395581400,2.42858154296875,0.01989428699016571,-0.8838151693344116,0.09579896926879883
1779786623405662200,2.438662109375,-0.05748199298977852,-0.8268813490867615,0.0967734158039093
1779786623415744300,2.448744140625,-0.12637051939964294,-0.9471102952957153,0.06856294721364975
1779786623425826300,2.458826416015625,-0.18210116028785706,-1.0209099054336548,0.03155512735247612
1779786623435907300,2.4689072265625,-0.2394229918718338,-0.9332461953163147,0.018778041005134583
1779786623445989400,2.4789892578125,-0.2512199878692627,-0.8303562998771667,0.05764847248792648
1779786623456071400,2.489071533203125,-0.3283245265483856,-0.6890350580215454,0.09259919822216034
1779786623466152400,2.49915234375,-0.4302341043949127,-0.5725806355476379,0.11888885498046875
1779786623476234500,2.509234375,-0.4776250720024109,-0.5296051502227783,0.13337211310863495
1779786623486316500,2.519316650390625,-0.4558473229408264,-0.5435164570808411,0.10975732654333115
1779786623496397600,2.5293974609375,-0.3784063160419464,-0.56302410364151,0.0209621824324131
1779786623506479600,2.539479736328125,-0.2718372642993927,-0.5250168442726135,-0.07190357148647308
1779786623516561200,2.54956103515625,-0.18479198217391968,-0.34754514694213867,-0.14793798327445984
1779786623526642400,2.559642333984375,-0.1617833375930786,-0.08874581754207611,-0.18983563780784607
1779786623536724200,2.56972412109375,-0.16326671838760376,0.06979881972074509,-0.1884169727563858
1779786623546806300,2.57980615234375,-0.176958829164505,0.06414279341697693,-0.16518329083919525
1779786623556888300,2.589888427734375,-0.17529743909835815,-0.03087499737739563,-0.10747179388999939
1779786623566969300,2.59996923828125,-0.14880910515785217,-0.13259150087833405,-0.035542480647563934
1779786623577051400,2.610051513671875,-0.1237662211060524,-0.18189780414104462,0.028163593262434006
1779786623587133400,2.620133544921875,-0.10525112599134445,-0.18531490862369537,0.0628504678606987
1779786623597214500,2.63021435546875,-0.11410558223724365,-0.1682099848985672,0.06647433340549469
1779786623607296500,2.640296630859375,-0.1152627244591713,-0.08697079122066498,0.06856118887662888
1779786623617378600,2.650378662109375,-0.09685339778661728,0.03804074972867966,0.07825691252946854
1779786623627459300,2.660459228515625,-0.07664133608341217,0.14794647693634033,0.09630195796489716
1779786623637541400,2.670541259765625,-0.0592823289334774,0.2411765605211258,0.10064410418272018
1779786623647623400,2.68062353515625,-0.045518044382333755,0.31614747643470764,0.06945981830358505
1779786623657704400,2.690704345703125,-0.022698089480400085,0.37563130259513855,0.018908826634287834
1779786623667786200,2.7007861328125,-0.02736474573612213,0.36442258954048157,-0.049743473529815674
1779786623677868300,2.710868408203125,-0.057699352502822876,0.24841584265232086,-0.10943283885717392
1779786623687949300,2.72094921875,-0.0978931114077568,0.022760871797800064,-0.14229491353034973
1779786623698031400,2.73103125,-0.10125131160020828,-0.21268953382968903,-0.15621116757392883
1779786623708113400,2.741113525390625,-0.08629739284515381,-0.3437655568122864,-0.1571805626153946
1779786623718194400,2.7511943359375,-0.07981463521718979,-0.32613590359687805,-0.11594036221504211
1779786623728276500,2.7612763671875,-0.09192562103271484,-0.18433642387390137,-0.0682455450296402
1779786623738358500,2.771358642578125,-0.11967187374830246,-0.012239792384207249,-0.04239233210682869
1779786623748439300,2.781439208984375,-0.12166738510131836,0.11869345605373383,-0.05354165658354759
1779786623758521300,2.791521240234375,-0.10330086201429367,0.1855938732624054,-0.07937183976173401
1779786623768603400,2.801603271484375,-0.09162317216396332,0.10891693085432053,-0.11991553753614426
1779786623778685400,2.811685546875,-0.08269225805997849,-0.06416110694408417,-0.14591917395591736
1779786623788766500,2.821766357421875,-0.06521046906709671,-0.18236044049263,-0.15345752239227295
1779786623798848500,2.8318486328125,-0.04747253283858299,-0.2619446814060211,-0.15253199636936188
1779786623808930300,2.841930419921875,-0.026217840611934662,-0.33038339018821716,-0.14199519157409668
1779786623819011300,2.85201123046875,-0.021997977048158646,-0.32489240169525146,-0.12112628668546677
1779786623829093400,2.86209326171875,-0.0157664455473423,-0.24283693730831146,-0.10244554281234741
1779786623839175400,2.872175537109375,0.006550968624651432,-0.12901529669761658,-0.12160879373550415
1779786623849256200,2.882256103515625,0.019712043926119804,-0.044271647930145264,-0.1557137668132782
1779786623859338200,2.892338134765625,0.03013327717781067,-0.030405111610889435,-0.18573224544525146
1779786623869420300,2.902420166015625,0.024078313261270523,-0.09594549983739853,-0.20722874999046326
1779786623879501300,2.912501220703125,0.018297577276825905,-0.14781761169433594,-0.21690870821475983
1779786623889583400,2.922583251953125,0.031198464334011078,-0.10184187442064285,-0.1971597671508789
1779786623899665400,2.93266552734375,0.035832904279232025,-0.002952552866190672,-0.16328206658363342
1779786623909747500,2.94274755859375,0.027333157137036324,0.08455386012792587,-0.13750480115413666
1779786623919828200,2.952828125,0.005269146524369717,0.10669346153736115,-0.11397848278284073
1779786623929910300,2.96291015625,-0.022647704929113388,0.05755734071135521,-0.09599762409925461
1779786623939992000,2.972991943359375,-0.05747733265161514,-0.046856921166181564,-0.07948067039251328
1779786623950073300,2.9830732421875,-0.07752480357885361,-0.15438364446163177,-0.05152919888496399
1779786623960155100,2.993155029296875,-0.07590785622596741,-0.18603800237178802,-0.01909811422228813
1779786623970237200,3.0032373046875,-0.04636834189295769,-0.15727320313453674,0.015840427950024605
1779786623980318200,3.013318115234375,-0.031002124771475792,-0.06051613762974739,0.03711794316768646
1779786623990400300,3.023400146484375,-0.012950152158737183,0.022372886538505554,0.04281923919916153
1779786624000482300,3.033482421875,-0.00984867848455906,0.067340187728405,0.04789663106203079
1779786624010564400,3.043564453125,-0.016004841774702072,0.09568341076374054,0.053214963525533676
1779786624020645400,3.053645263671875,-0.0042832414619624615,0.10955239832401276,0.05966383218765259
1779786624030727200,3.06372705078125,0.003059892449527979,0.06594420224428177,0.05878845229744911
1779786624040809200,3.073809326171875,0.022549087181687355,0.0047952900640666485,0.055685754865407944
1779786624050890200,3.08389013671875,0.053046539425849915,0.007836885750293732,0.049543172121047974
1779786624060972300,3.09397216796875,0.0790097638964653,0.06310132145881653,0.03574800491333008
1779786624071054300,3.104054443359375,0.09685374796390533,0.12557721138000488,0.010404829867184162
1779786624081135400,3.11413525390625,0.08918768167495728,0.16712099313735962,-0.012502497062087059
1779786624091217200,3.124217041015625,0.0744478851556778,0.1756926327943802,-0.03268606215715408
1779786624101299200,3.13429931640625,0.05294983088970184,0.15316268801689148,-0.03881063684821129
1779786624111381200,3.14438134765625,0.03811948746442795,0.10525429993867874,-0.03992330655455589
1779786624121462300,3.154462158203125,0.0257274080067873,0.025571713224053383,-0.045985788106918335
1779786624131544300,3.16454443359375,0.02157101221382618,-0.06818141043186188,-0.05768665298819542
1779786624141626400,3.17462646484375,0.02359720692038536,-0.13322418928146362,-0.07057126611471176
1779786624151707100,3.18470703125,0.017715616151690483,-0.15898574888706207,-0.0662500187754631
1779786624161789200,3.1947890625,0.012114189565181732,-0.1493230015039444,-0.05401891469955444
1779786624171871200,3.204871337890625,-0.0120555954053998,-0.08407528698444366,-0.037250056862831116
1779786624181952300,3.2149521484375,-0.04572026804089546,-0.009027305990457535,-0.021625416353344917
1779786624192034300,3.225034423828125,-0.0695856511592865,0.030799737200140953,-0.0030227031093090773
1779786624202116400,3.235116455078125,-0.08152458071708679,0.0015440769493579865,0.018181493505835533
1779786624212198100,3.2451982421875,-0.0817703902721405,-0.06568636000156403,0.04435184597969055
1779786624222279400,3.255279541015625,-0.07571519911289215,-0.12916912138462067,0.07177872210741043
1779786624232361200,3.265361328125,-0.06263987720012665,-0.139412984251976,0.08146810531616211
1779786624242443300,3.275443359375,-0.04345184564590454,-0.09688568115234375,0.06918352097272873
1779786624252524300,3.285524169921875,-0.037770792841911316,-0.052214086055755615,0.06349634379148483
1779786624262606000,3.295606201171875,-0.034630127251148224,-0.044335924088954926,0.06295732408761978
1779786624272688000,3.305688232421875,-0.03779156506061554,-0.07586242258548737,0.07539907842874527
1779786624282770200,3.315770263671875,-0.03333570808172226,-0.11668867617845535,0.09255868941545486
1779786624292851200,3.325851318359375,-0.02774972841143608,-0.1460377722978592,0.09649989753961563
1779786624302933200,3.335933349609375,-0.018273850902915,-0.14930401742458344,0.07603207230567932
1779786624313015300,3.346015380859375,-0.0061652567237615585,-0.13381001353263855,0.04065171256661415
1779786624323096300,3.356096435546875,0.0058427308686077595,-0.08931644260883331,0.0032100998796522617
1779786624333178400,3.366178466796875,0.0047295293770730495,-0.008330517448484898,-0.01733565516769886
1779786624343260400,3.376260498046875,-0.00027940748259425163,0.037296462804079056,-0.027377963066101074
1779786624353342200,3.38634228515625,-0.009839623235166073,0.007467726245522499,-0.04317396879196167
1779786624363423200,3.39642333984375,-0.01560899242758751,-0.0767621323466301,-0.05188758298754692
1779786624373505300,3.40650537109375,-0.02204025909304619,-0.10620284825563431,-0.05893164128065109
1779786624383587300,3.41658740234375,-0.0293208509683609,-0.09087122231721878,-0.06022535264492035
1779786624393668000,3.426668212890625,-0.03944725543260574,-0.05339096114039421,-0.07814603298902512
1779786624403750100,3.436750244140625,-0.05514979362487793,-0.02328208088874817,-0.07738758623600006
1779786624413832200,3.446832275390625,-0.07890625298023224,-0.024389157071709633,-0.056892700493335724
1779786624423914200,3.456914306640625,-0.10285895317792892,-0.006625412497669458,-0.0319109670817852
1779786624433995300,3.466995361328125,-0.12773367762565613,0.019055981189012527,-0.018476121127605438
1779786624444077300,3.477077392578125,-0.1367061734199524,0.012162728235125542,-0.01866142638027668
1779786624454159400,3.487159423828125,-0.14835989475250244,-0.029354887083172798,0.019933369010686874
1779786624464240400,3.497240478515625,-0.13990335166454315,-0.03133586049079895,0.09471838921308517
1779786624474322400,3.507322509765625,-0.11453408002853394,0.010470174252986908,0.15116354823112488
1779786624484404200,3.517404296875,-0.09318693727254868,0.052649758756160736,0.16409152746200562
1779786624494486300,3.527486328125,-0.07350245118141174,0.0790020078420639,0.14548242092132568
1779786624504567000,3.537567138671875,-0.06193093582987785,0.09630998224020004,0.1333305537700653
1779786624514649000,3.547649169921875,-0.057362016290426254,0.10994190722703934,0.13618014752864838
1779786624524731100,3.557731201171875,-0.06014163792133331,0.09167758375406265,0.1359456330537796
1779786624534812200,3.567812255859375,-0.03948482871055603,0.06406433135271072,0.09373533725738525
1779786624544894200,3.577894287109375,-0.01815461926162243,0.029933972284197807,0.07340076565742493
1779786624554976300,3.587976318359375,-0.007879078388214111,-0.01517811045050621,0.15973538160324097
1779786624565058300,3.598058349609375,-0.03234272822737694,-0.020739862695336342,0.2880655825138092
1779786624575139300,3.608139404296875,-0.020752117037773132,-0.023837119340896606,0.3459022641181946
1779786624585221400,3.618221435546875,-0.016354430466890335,0.013954604044556618,0.3111574947834015
1779786624595303400,3.628303466796875,0.00040777120739221573,0.08727090060710907,0.2293749898672104
1779786624605385200,3.63838525390625,0.017010292038321495,0.14820387959480286,0.11898822337388992
1779786624615466200,3.64846630859375,0.038426902145147324,0.1521264612674713,0.021457139402627945
1779786624625548300,3.65854833984375,0.04162456840276718,0.10438266396522522,-0.044966600835323334
1779786624635630300,3.66863037109375,0.027260273694992065,0.027107849717140198,-0.09578796476125717
1779786624645711000,3.678711181640625,0.012766418978571892,-0.035674355924129486,-0.1198342964053154
1779786624655793200,3.688793212890625,0.005744993686676025,-0.08365494012832642,-0.12146282196044922
1779786624665875200,3.698875244140625,0.00426601292565465,-0.13388031721115112,-0.11552698910236359
1779786624675957200,3.708957275390625,0.006143541540950537,-0.16451598703861237,-0.10876628756523132
1779786624686038300,3.719038330078125,0.005303476005792618,-0.13783010840415955,-0.0998433530330658
1779786624696120300,3.729120361328125,0.005310665816068649,-0.08102995157241821,-0.08708574622869492
1779786624706202400,3.739202392578125,0.004287500400096178,-0.03446533530950546,-0.060963019728660583
1779786624716284200,3.7492841796875,-0.006018400192260742,0.002070304937660694,-0.04148545861244202
1779786624726365400,3.759365478515625,-0.020145516842603683,0.009921484626829624,-0.0386422760784626
1779786624736447200,3.769447265625,-0.02873660810291767,-0.05313045531511307,-0.018869103863835335
1779786624746529300,3.779529296875,-0.03179065138101578,-0.1256447732448578,0.008258773013949394
1779786624756610000,3.789610107421875,-0.036410436034202576,-0.1646808683872223,0.03098325990140438
1779786624766692000,3.799692138671875,-0.03983001783490181,-0.16676542162895203,0.04460518807172775
1779786624776774100,3.809774169921875,-0.04093363136053085,-0.1408398151397705,0.05176376551389694
1779786624786856200,3.819856201171875,-0.048474591225385666,-0.1136317029595375,0.05500078201293945
1779786624796937200,3.829937255859375,-0.047449804842472076,-0.0887007862329483,0.04559210687875748
1779786624807019300,3.840019287109375,-0.024042150005698204,-0.05508967489004135,0.046606823801994324
1779786624817101300,3.850101318359375,-0.001953093335032463,-0.03497881442308426,0.054133448749780655
1779786624827183400,3.860183349609375,0.017296582460403442,-0.025509044528007507,0.04918011277914047
1779786624837264400,3.870264404296875,0.03358926996588707,-0.032771483063697815,0.02402123063802719
1779786624847346700,3.8803466796875,0.04053203761577606,-0.08511896431446075,-0.007645783945918083
1779786624857428700,3.8904287109375,0.045179784297943115,-0.1687326282262802,-0.030325261875987053
1779786624867510800,3.9005107421875,0.053374551236629486,-0.22515057027339935,-0.05256660282611847
1779786624877591800,3.910591796875,0.06663123518228531,-0.22404775023460388,-0.08307337760925293
1779786624887673900,3.920673828125,0.07630880177021027,-0.16194693744182587,-0.12558238208293915
1779786624897756000,3.930755859375,0.07486030459403992,-0.067727230489254,-0.15704897046089172
1779786624907838000,3.940837890625,0.06241327524185181,-0.01864791475236416,-0.17299309372901917
1779786624917918700,3.950918701171875,0.03780726343393326,-0.025552425533533096,-0.16294658184051514
1779786624928000800,3.961000732421875,0.01871045120060444,-0.04528388753533363,-0.13224981725215912
1779786624938082800,3.971082763671875,0.0035735759884119034,-0.04876597225666046,-0.0726221576333046
1779786624948163800,3.981163818359375,-0.013815498910844326,-0.04585075378417969,-0.010724957101047039
1779786624958245600,3.99124560546875,-0.024473469704389572,-0.06198684498667717,0.0519312359392643
1779786624968327700,4.00132763671875,-0.01552451029419899,-0.08239047229290009,0.1047530472278595
1779786624978409700,4.01140966796875,-0.013146040961146355,-0.10015402734279633,0.12820963561534882
1779786624988490800,4.02149072265625,-0.0027009868063032627,-0.10834886133670807,0.13009746372699738
1779786624998572800,4.03157275390625,0.011873429641127586,-0.09006919711828232,0.11683998256921768
1779786625008654800,4.04165478515625,0.026637831702828407,-0.03334140032529831,0.09516076743602753
1779786625018737000,4.05173681640625,0.04271533712744713,0.020176153630018234,0.07356279343366623
1779786625028817700,4.061817626953125,0.05439567193388939,0.012666290625929832,0.06602363288402557
1779786625038899700,4.071899658203125,0.06814876943826675,-0.01587320864200592,0.0709930881857872
1779786625048981800,4.081981689453125,0.08317695558071136,-0.016560694202780724,0.07858335226774216
1779786625059063600,4.0920634765625,0.10053543746471405,0.012217424809932709,0.08282843232154846
1779786625069144800,4.102144775390625,0.11445727199316025,0.013788359239697456,0.056714557111263275
1779786625079226600,4.1122265625,0.11992766708135605,-0.03319379687309265,0.008177649229764938
1779786625089308700,4.12230859375,0.11888714879751205,-0.10602770000696182,-0.03983720764517784
1779786625099390700,4.132390625,0.11876943707466125,-0.13706204295158386,-0.06611115485429764
1779786625109471700,4.1424716796875,0.13210761547088623,-0.10292170941829681,-0.09045635908842087
1779786625119553800,4.1525537109375,0.1384211778640747,-0.03423132747411728,-0.11972290277481079
1779786625129635800,4.1626357421875,0.133489727973938,0.025967691093683243,-0.16124588251113892
1779786625139718000,4.1727177734375,0.11403587460517883,0.07093968987464905,-0.2044314295053482
1779786625149799000,4.182798828125,0.08479326218366623,0.0730673149228096,-0.2244715839624405
1779786625159881000,4.192880859375,0.0606841966509819,0.04326840862631798,-0.21822673082351685
1779786625169962800,4.202962646484375,0.045320235192775726,0.019808989018201828,-0.21172447502613068
1779786625180044500,4.21304443359375,0.028631800785660744,0.021767210215330124,-0.19437238574028015
1779786625190125800,4.223125732421875,0.011887762695550919,-0.02965940348803997,-0.16258211433887482
1779786625200207600,4.23320751953125,-0.0038049141876399517,-0.08216948807239532,-0.12774130702018738
1779786625210289700,4.24328955078125,-0.02428118698298931,-0.07835041731595993,-0.08422625064849854
1779786625220371700,4.253371826171875,-0.05952998995780945,-0.035962216556072235,0.019826913252472878
1779786625230452700,4.26345263671875,-0.06521623581647873,-0.0065156216733157635,0.07672490924596786
1779786625240534800,4.27353466796875,-0.07937493175268173,0.033944983035326004,0.09594681113958359
1779786625250616800,4.283616943359375,-0.08850198239088058,0.03622595965862274,0.1280423253774643
1779786625260699000,4.293698974609375,-0.09419795125722885,0.0014373506419360638,0.165235236287117
1779786625270780000,4.30377978515625,-0.10114036500453949,-0.016249602660536766,0.1857859194278717
1779786625280862000,4.313862060546875,-0.09348803758621216,-0.03159873187541962,0.1705760657787323
1779786625290943700,4.32394384765625,-0.07961248606443405,-0.032721128314733505,0.14236091077327728
1779786625301025800,4.33402587890625,-0.06409451365470886,0.003715177532285452,0.12563465535640717
1779786625311106600,4.3441064453125,-0.051526762545108795,0.024031279608607292,0.11107801645994186
1779786625321188600,4.354188720703125,-0.02664218656718731,0.011660629883408546,0.11137761920690536
1779786625331270700,4.364270751953125,0.0043634274043142796,-0.004049395211040974,0.10746927559375763
1779786625341352700,4.374352783203125,0.03468191996216774,0.005432523787021637,0.09206049144268036
1779786625351433700,4.384433837890625,0.05368919298052788,0.020344005897641182,0.06846240907907486
1779786625361515800,4.394515869140625,0.06967002153396606,0.034621480852365494,0.04639865458011627
1779786625371597800,4.404597900390625,0.080145463347435,0.07469192147254944,0.016999684274196625
1779786625381679900,4.414679931640625,0.0894279032945633,0.12189645320177078,-0.005106416530907154
1779786625391761000,4.424760986328125,0.09229301661252975,0.1271754652261734,-0.01714482717216015
1779786625401843000,4.434843017578125,0.08861545473337173,0.10387014597654343,-0.017026318237185478
1779786625411924700,4.4449248046875,0.07727289199829102,0.03396330028772354,-0.019315054640173912
1779786625422006800,4.4550068359375,0.07029461115598679,-0.01652410998940468,-0.023612331598997116
1779786625432087600,4.465087646484375,0.06412006914615631,-0.03741591051220894,-0.030625058338046074
1779786625442169600,4.475169677734375,0.055002741515636444,-0.031550295650959015,-0.025444943457841873
1779786625452251600,4.485251708984375,0.05728006362915039,-0.01119956374168396,-0.009830351918935776
1779786625462333700,4.495333740234375,0.04973825812339783,0.032997991889715195,0.005495075602084398
1779786625472415700,4.505415771484375,0.03777189925312996,0.05417110025882721,0.027364883571863174
1779786625482496800,4.515496826171875,0.033478617668151855,0.06984087079763412,0.05096767842769623
1779786625492578800,4.525578857421875,0.012928232550621033,0.037926334887742996,0.09111183136701584
1779786625502660900,4.535660888671875,-0.0027151755057275295,-0.01777101494371891,0.1339045763015747
1779786625512742700,4.54574267578125,-0.0183870829641819,-0.04678833484649658,0.16433873772621155
1779786625522824000,4.555823974609375,-0.03095933422446251,-0.03293243795633316,0.18346261978149414
1779786625532905700,4.56590576171875,-0.0352320522069931,0.005365120247006416,0.19547493755817413
1779786625542987800,4.57598779296875,-0.033681560307741165,0.0426001101732254,0.1957167387008667
1779786625553069800,4.58606982421875,-0.023548204451799393,0.06886331737041473,0.18123601377010345
1779786625563150600,4.596150634765625,-0.012469190172851086,0.07552068680524826,0.16181623935699463
1779786625573232600,4.606232666015625,-0.00462139630690217,0.0623435378074646,0.13406415283679962
1779786625583314700,4.616314697265625,0.004370500799268484,0.06703948974609375,0.09989499300718307
1779786625593396700,4.626396728515625,0.008458473719656467,0.08649832010269165,0.055554889142513275
1779786625603477800,4.636477783203125,0.01430570986121893,0.10089962929487228,0.009203102439641953
1779786625613559800,4.646559814453125,0.018209408968687057,0.11615289002656937,-0.03131847456097603
1779786625623641900,4.656641845703125,0.022771136835217476,0.1389404833316803,-0.06015411764383316
1779786625633723600,4.6667236328125,0.013257814571261406,0.13533848524093628,-0.06333187222480774
1779786625643805700,4.6768056640625,0.013637581840157509,0.10782776772975922,-0.04430944472551346
1779786625653886700,4.68688671875,0.004357363563030958,0.060611531138420105,-0.03325272724032402
1779786625663968800,4.69696875,-0.0027828372549265623,0.014344168826937675,-0.02308318018913269
1779786625674050800,4.70705078125,-0.02419060841202736,-0.01350090280175209,-0.02059335447847843
1779786625684132900,4.7171328125,-0.03137741610407829,-0.025736529380083084,-0.011899198405444622
1779786625694214000,4.7272138671875,-0.035128556191921234,-0.027784336358308792,0.007528951857239008
1779786625704296000,4.7372958984375,-0.02860381081700325,-0.0007103746756911278,0.027007844299077988
1779786625714378000,4.7473779296875,-0.028028085827827454,0.04836621880531311,0.06608836352825165
1779786625724459800,4.757459716796875,-0.023776082322001457,0.08587151020765305,0.11849644035100937
1779786625734541600,4.76754150390625,-0.02366892620921135,0.08590295910835266,0.16536763310432434
1779786625744622600,4.77762255859375,-0.0255962535738945,0.06211720407009125,0.200344517827034
1779786625754704600,4.78770458984375,-0.026227032765746117,0.02243039384484291,0.21189604699611664
1779786625764786700,4.79778662109375,-0.022375036031007767,-0.022661183029413223,0.20078080892562866
1779786625774868700,4.80786865234375,-0.009142929688096046,-0.07858757674694061,0.1781305968761444
1779786625784949800,4.81794970703125,0.009273894131183624,-0.10627033561468124,0.15448491275310516
1779786625795031800,4.82803173828125,0.03140445798635483,-0.1010999083518982,0.12645475566387177
1779786625805113900,4.83811376953125,0.0641285851597786,-0.07189967483282089,0.09288027882575989
1779786625815196000,4.84819580078125,0.07998263835906982,-0.018611468374729156,0.0558168925344944
1779786625825277700,4.858277587890625,0.09256234765052795,0.00531570240855217,0.02319290302693844
1779786625835359000,4.86835888671875,0.10279825329780579,-0.006257987581193447,-0.00213878252543509
1779786625845440800,4.878440673828125,0.10838263481855392,-0.01598731428384781,-0.030402112752199173
1779786625855523000,4.888523193359375,0.11449753493070602,-0.008558334782719612,-0.053015463054180145
1779786625865605000,4.898605224609375,0.11418594419956207,-0.011716311797499657,-0.05882914364337921
1779786625875686000,4.908685791015625,0.11333222687244415,-0.03696177899837494,-0.05357988923788071
1779786625885768000,4.918767822265625,0.10908235609531403,-0.07255865633487701,-0.04765915125608444
1779786625895850000,4.92885009765625,0.10695353895425797,-0.09751347452402115,-0.04913508892059326
1779786625905932000,4.93893212890625,0.08556035906076431,-0.09684448689222336,-0.05550137534737587
1779786625916014000,4.94901416015625,0.06436120718717575,-0.08780063688755035,-0.06849591434001923
1779786625926095000,4.95909521484375,0.03190232813358307,-0.07570323348045349,-0.08392573893070221
1779786625936177000,4.969177001953125,0.006299261935055256,-0.07391548901796341,-0.08694885671138763
1779786625946259000,4.979259033203125,-0.01625824347138405,-0.05520651116967201,-0.08263347297906876
1779786625956341000,4.989341064453125,-0.025683291256427765,-0.030271977186203003,-0.0660322830080986
1779786625966423000,4.999423095703125,-0.031690049916505814,-0.01624404266476631,-0.030308902263641357
1779786625976504000,5.009504150390625,-0.03477845340967178,-0.0197465717792511,0.010324512608349323
1779786625986586000,5.019586181640625,-0.03829116374254227,-0.031097762286663055,0.0446808859705925
1779786625996668200,5.029668212890625,-0.040636204183101654,-0.03638597950339317,0.06240324676036835
1779786626006750200,5.039750244140625,-0.05089230462908745,-0.02602308802306652,0.07318025827407837
1779786626016831000,5.0498310546875,-0.06841957569122314,-0.010269111022353172,0.07669609040021896
1779786626026913000,5.0599130859375,-0.07735128700733185,-0.004108153749257326,0.06930182129144669
1779786626036994800,5.069994873046875,-0.08255703747272491,-0.010138973593711853,0.06704576313495636
1779786626047076900,5.080076904296875,-0.07150838524103165,-0.041926462203264236,0.06532802432775497
1779786626057159000,5.090158935546875,-0.05362563207745552,-0.06463437527418137,0.06865537166595459
1779786626067240000,5.100239990234375,-0.03791457787156105,-0.07679703831672668,0.0631016194820404
1779786626077322000,5.110322021484375,-0.019615590572357178,-0.0747491642832756,0.05848247557878494
1779786626087404000,5.120404052734375,-0.006127745378762484,-0.07637689262628555,0.05429678410291672
1779786626097486000,5.130486083984375,0.009443063288927078,-0.08127983659505844,0.031057514250278473
1779786626107568000,5.140568115234375,0.027166398242115974,-0.07107726484537125,0.00007057003676891327
1779786626117649200,5.150649169921875,0.0494205616414547,-0.054839227348566055,-0.03353528305888176
1779786626127731200,5.160731201171875,0.06835803389549255,-0.03150780498981476,-0.06835025548934937
1779786626137813000,5.17081298828125,0.08927226066589355,0.017497224733233452,-0.0976354256272316
1779786626147895000,5.18089501953125,0.10101120918989182,0.04414960741996765,-0.10843747109174728
1779786626157977000,5.19097705078125,0.09649071097373962,0.05489332973957062,-0.10182245075702667
1779786626168057900,5.201057861328125,0.08060815185308456,0.044774118810892105,-0.08233184367418289
1779786626178140000,5.211139892578125,0.053659480065107346,0.01610490307211876,-0.06587892770767212
1779786626188222000,5.221221923828125,0.02798714116215706,-0.007447561249136925,-0.052726369351148605
1779786626198304000,5.231303955078125,0.0010828557424247265,-0.033488523215055466,-0.036637309938669205
1779786626208386000,5.241385986328125,-0.02018674835562706,-0.05219137296080589,-0.013860891573131084
1779786626218467000,5.251467041015625,-0.03838271647691727,-0.06194044277071953,0.009178766049444675
1779786626228549000,5.261549072265625,-0.04009299725294113,-0.04781903326511383,0.03606550768017769
1779786626238631000,5.271630859375,-0.042718108743429184,-0.001607147278264165,0.05415628105401993
1779786626248713000,5.281712890625,-0.04259533807635307,0.036614540964365005,0.0682755559682846
1779786626258794000,5.2917939453125,-0.03965413197875023,0.06224285438656807,0.08163044601678848
1779786626268876000,5.3018759765625,-0.03738405182957649,0.04811132699251175,0.09447886794805527
1779786626278958000,5.3119580078125,-0.025333959609270096,0.026484085246920586,0.09692985564470291
1779786626289040100,5.3220400390625,-0.022996503859758377,0.014539539813995361,0.09712506830692291
1779786626299122200,5.3321220703125,-0.009904801845550537,-0.011407006531953812,0.09755878150463104
1779786626309203000,5.342202880859375,-0.002133697737008333,-0.053177088499069214,0.09758194535970688
1779786626319285000,5.352284912109375,0.011819811537861824,-0.07583443820476532,0.09258753806352615
1779786626329367000,5.362366943359375,0.018147747963666916,-0.05947065353393555,0.0823623314499855
1779786626339448800,5.37244873046875,0.025224268436431885,-0.04186924546957016,0.07832913845777512
1779786626349531000,5.38253076171875,0.022163763642311096,-0.036604974418878555,0.07721807062625885
1779786626359613000,5.392613037109375,0.021810004487633705,-0.024026887491345406,0.0797186940908432
1779786626369694000,5.40269384765625,0.02201133966445923,-0.0208143163472414,0.08067850768566132
1779786626379776000,5.41277587890625,0.025956492871046066,-0.020872637629508972,0.08460931479930878
1779786626389858000,5.422858154296875,0.029185842722654343,-0.023764031007885933,0.07833277434110641
1779786626399940000,5.432940185546875,0.0438048280775547,-0.027154825627803802,0.07380089163780212
1779786626410022100,5.443022216796875,0.05385666340589523,-0.029683763161301613,0.06555015593767166
1779786626420103200,5.453103271484375,0.057235974818468094,-0.011674098670482635,0.05228564888238907
1779786626430185000,5.46318505859375,0.0493231937289238,0.008929180912673473,0.040160275995731354
1779786626440267000,5.47326708984375,0.04396096616983414,0.009528190828859806,0.023241184651851654
1779786626450349000,5.48334912109375,0.032518696039915085,0.0021914485841989517,-0.0015326044522225857
1779786626460431000,5.49343115234375,0.027813902124762535,-0.0065744114108383656,-0.036619722843170166
1779786626470511900,5.503511962890625,0.023850321769714355,-0.0237954743206501,-0.06827139109373093
1779786626480594000,5.513593994140625,0.0160176083445549,-0.035505153238773346,-0.09845546633005142
1779786626490676000,5.523676025390625,0.016507364809513092,-0.03974170610308647,-0.11979484558105469
1779786626500758000,5.533758056640625,0.010638544335961342,-0.06553347408771515,-0.13414552807807922
1779786626510840000,5.543840087890625,0.002537207677960396,-0.09051419049501419,-0.1416199654340744
1779786626520921000,5.553921142578125,-0.010467617772519588,-0.08864981681108475,-0.14341959357261658
1779786626531003000,5.5640029296875,-0.030131865292787552,-0.0760464072227478,-0.12386586517095566
1779786626541085000,5.5740849609375,-0.05528717488050461,-0.05667690932750702,-0.10921716690063477
1779786626551167000,5.5841669921875,-0.0704307034611702,-0.04192166402935982,-0.08535924553871155
1779786626561249000,5.5942490234375,-0.07634218037128448,-0.042623475193977356,-0.06189649924635887
1779786626571330000,5.604330078125,-0.07495947182178497,-0.043276749551296234,-0.03229253366589546
1779786626581412000,5.614412109375,-0.061369024217128754,-0.036094292998313904,0.005348425358533859
1779786626591494100,5.624494140625,-0.05083542317152023,-0.006862372159957886,0.05215587839484215
1779786626601576200,5.634576171875,-0.036074623465538025,0.02307141199707985,0.08701422065496445
1779786626611658000,5.644657958984375,-0.023738598451018333,0.053251154720783234,0.11566344648599625
1779786626621740000,5.654739990234375,-0.016648534685373306,0.08992908895015717,0.1453889012336731
1779786626631820800,5.66482080078125,-0.01507700327783823,0.10564014315605164,0.1675429493188858
1779786626641902800,5.67490283203125,-0.006635730154812336,0.08776739239692688,0.1857122778892517
1779786626651985000,5.68498486328125,-0.00020526163280010223,0.08786991983652115,0.195850670337677
1779786626662067000,5.69506689453125,-0.048969682306051254,0.15476521849632263,0.1771700382232666
1779786626672149000,5.70514892578125,-0.13127681612968445,0.3572253882884979,0.15540988743305206
1779786626682230000,5.71522998046875,-0.05098680779337883,0.2371460497379303,0.12828615307807922
1779786626692312000,5.72531201171875,0.03813854232430458,-0.07555859535932541,0.1244080513715744
1779786626702394000,5.73539404296875,0.02348625659942627,-0.162476047873497,0.08795652538537979
1779786626712476000,5.745475830078125,0.018355144187808037,-0.12417127937078476,0.03667150065302849
1779786626722558000,5.755557861328125,0.02760125696659088,-0.10624019056558609,-0.02128945291042328
1779786626732639000,5.765638916015625,0.03373265266418457,-0.06598705053329468,-0.07956394553184509
1779786626742721000,5.775720947265625,0.04860476404428482,-0.013115990906953812,-0.12357645481824875
1779786626752803000,5.785802978515625,0.05600382387638092,0.013664757832884789,-0.1540917456150055
1779786626762885000,5.795885009765625,0.05968151241540909,0.02721581608057022,-0.17946602404117584
1779786626772967200,5.80596728515625,0.061937473714351654,0.042150288820266724,-0.1964316964149475
1779786626783049200,5.81604931640625,0.057083334773778915,0.030312273651361465,-0.20583266019821167
1779786626793130000,5.8261298828125,0.052861690521240234,0.020035400986671448,-0.19686445593833923
1779786626803212000,5.8362119140625,0.049889564514160156,0.02749701403081417,-0.17514201998710632
1779786626813293800,5.8462939453125,0.04251553863286972,0.059257872402668,-0.14077845215797424
1779786626823376000,5.8563759765625,0.029984526336193085,0.08691446483135223,-0.11138218641281128
1779786626833458000,5.8664580078125,0.01750814914703369,0.09847737848758698,-0.07901120185852051
1779786626843540000,5.8765400390625,-0.0043406179174780846,0.0896313339471817,-0.03815783932805061
1779786626853621000,5.88662109375,-0.01967989280819893,0.0633387491106987,0.0016183373518288136
1779786626863703000,5.896703125,-0.029388152062892914,0.010204185731709003,0.03931795060634613
1779786626873785000,5.90678515625,-0.036497727036476135,-0.05936583876609802,0.0617673322558403
1779786626883867100,5.9168671875,-0.029516082257032394,-0.10000105202198029,0.07450759410858154
1779786626893949000,5.926948974609375,-0.019532158970832825,-0.10615535080432892,0.07577978074550629
1779786626904030200,5.9370302734375,-0.016105355694890022,-0.10159607976675034,0.06537891924381256
1779786626914112000,5.947112060546875,-0.01076438557356596,-0.09935769438743591,0.042119935154914856
1779786626924194000,5.957194091796875,-0.01238860934972763,-0.07146819680929184,0.014213976450264454
1779786626934276000,5.967276123046875,-0.012026152573525906,-0.029323142021894455,-0.01695379614830017
1779786626944358100,5.977358154296875,-0.010175826959311962,-0.014225754886865616,-0.03583744913339615
1779786626954440200,5.987440185546875,-0.01386297307908535,-0.016460945829749107,-0.04036402329802513
1779786626964521000,5.99752099609375,-0.008669812232255936,-0.009996844455599785,-0.037347663193941116
1779786626974603000,6.00760302734375,-0.00558267580345273,-0.01032601110637188,-0.03388075903058052
1779786626984685000,6.01768505859375,-0.0011215358972549438,-0.01393749751150608,-0.027999624609947205
1779786626994766800,6.027766845703125,-0.0016576300840824842,0.00042413221672177315,-0.030479557812213898
1779786627004849000,6.037848876953125,-0.0031202412210404873,-0.0021864883601665497,-0.03672407567501068
1779786627014931000,6.047930908203125,-0.008017261512577534,-0.014113189652562141,-0.024237576872110367
1779786627025012000,6.058011962890625,-0.007092989049851894,-0.01671629771590233,0.0004522779490798712
1779786627035094000,6.068093994140625,-0.00872603990137577,-0.03521221876144409,0.01788320019841194
1779786627045176000,6.078176025390625,-0.0021581556648015976,-0.054968301206827164,0.021400516852736473
1779786627055258000,6.088258056640625,-0.00010778801515698433,-0.06813417375087738,0.021711042150855064
1779786627065340200,6.098340087890625,0.00502777798101306,-0.07728060334920883,0.00576014444231987
1779786627075422000,6.108421875,0.00608105817809701,-0.08739235997200012,-0.020579583942890167
1779786627085503000,6.1185029296875,0.0003377222456037998,-0.08874105662107468,-0.04095664247870445
1779786627095585000,6.1285849609375,-0.01086379960179329,-0.10815203934907913,-0.04502062499523163
1779786627105667000,6.1386669921875,-0.023129938170313835,-0.13600173592567444,-0.039940930902957916
1779786627115749000,6.1487490234375,-0.022594377398490906,-0.12266700714826584,-0.05051634460687637
1779786627125831200,6.1588310546875,-0.016145076602697372,-0.05858061462640762,-0.07241279631853104
1779786627135913000,6.168912841796875,-0.010194510221481323,0.015535958111286163,-0.08277915418148041
1779786627145994000,6.178993896484375,-0.0782189890742302,0.18020345270633698,-0.10527414828538895
1779786627156076000,6.189075927734375,-0.13644234836101532,0.45392343401908875,-0.08496754616498947
1779786627166158000,6.199157958984375,-0.07399014383554459,0.3284727931022644,-0.04131975397467613
1779786627176239900,6.209239990234375,-0.010361638851463795,0.05199244245886803,0.03802460432052612
1779786627186322000,6.219322021484375,-0.015664301812648773,-0.060442592948675156,0.08603797852993011
1779786627196404000,6.229404052734375,-0.024932902306318283,-0.019525784999132156,0.11650906503200531
1779786627206485000,6.239485107421875,-0.01598137430846691,0.005173421930521727,0.13420116901397705
1779786627216567000,6.249567138671875,-0.005064543802291155,0.031055353581905365,0.1435547173023224
1779786627226649000,6.259649169921875,0.0020352122373878956,0.038762692362070084,0.13923725485801697
1779786627236731100,6.269731201171875,0.014371507801115513,0.028182750567793846,0.12021961063146591
1779786627246813200,6.279813232421875,0.024202948436141014,0.015042239800095558,0.09276986122131348
1779786627256895000,6.28989501953125,0.034553058445453644,0.0035823918879032135,0.061275046318769455
1779786627266977000,6.29997705078125,0.03705107420682907,-0.013430150225758553,0.02239297516644001
1779786627277058000,6.31005810546875,0.04332148656249046,-0.021159175783395767,-0.007651743479073048
1779786627287139800,6.320139892578125,0.03902324661612511,-0.026771683245897293,-0.027653619647026062
1779786627297222000,6.330221923828125,0.03482796996831894,-0.022874679416418076,-0.05128490924835205
1779786627307304000,6.340303955078125,0.023169532418251038,-0.01153689343482256,-0.058644089847803116
1779786627317386000,6.350385986328125,0.009834284894168377,0.00018793949857354164,-0.07233566790819168
1779786627327468000,6.360468017578125,-0.0002765278331935406,-0.012784183025360107,-0.07339058071374893
1779786627337549000,6.370549072265625,-0.010735293850302696,-0.0353800393640995,-0.07831982523202896
1779786627347631000,6.380631103515625,-0.01534284558147192,-0.05127605423331261,-0.08610409498214722
1779786627357713000,6.390712890625,-0.015262951143085957,-0.05411072075366974,-0.09197264164686203
1779786627367795000,6.400794921875,-0.015666773542761803,-0.047333285212516785,-0.0942496508359909
1779786627377877000,6.410876953125,-0.021507086232304573,-0.03768704831600189,-0.09056144207715988
1779786627387959000,6.420958984375,-0.026141304522752762,-0.016047365963459015,-0.07858090102672577
1779786627398040000,6.4310400390625,-0.03805442526936531,0.006406277418136597,-0.05942637845873833
1779786627408122000,6.4411220703125,-0.05236411467194557,0.000051779672503471375,-0.03731382638216019
1779786627418204200,6.4512041015625,-0.06081512197852135,-0.014548733830451965,-0.015698544681072235
1779786627428286000,6.461285888671875,-0.07142925262451172,-0.01573255844414234,0.004151803907006979
1779786627438368000,6.471367919921875,-0.07749460637569427,-0.04182514548301697,0.025810495018959045
1779786627448450000,6.481449951171875,-0.08076976984739304,-0.07401710748672485,0.05947112292051315
1779786627458532000,6.491531982421875,-0.08019985258579254,-0.09299878776073456,0.10228782892227173
1779786627468612900,6.50161279296875,-0.07131576538085938,-0.0978999137878418,0.13584893941879272
1779786627478695000,6.51169482421875,-0.06653271615505219,-0.11210308223962784,0.16135217249393463
1779786627488777000,6.52177685546875,-0.05704089254140854,-0.11503645777702332,0.17988747358322144
1779786627498859000,6.53185888671875,-0.04838881269097328,-0.10479474067687988,0.1819697916507721
1779786627508941000,6.541941162109375,-0.02930529974400997,-0.07618369162082672,0.16503167152404785
1779786627519022800,6.55202294921875,-0.005437251180410385,-0.02314257249236107,0.13135254383087158
1779786627529105000,6.56210498046875,0.022036947309970856,0.015980124473571777,0.08835190534591675
1779786627539186000,6.57218603515625,0.04612337425351143,0.03483929857611656,0.04330826923251152
1779786627549268000,6.58226806640625,0.06189408153295517,0.02792765200138092,-0.00350970565341413
1779786627559350000,6.59235009765625,0.07564638555049896,0.02949199452996254,-0.05745309591293335
1779786627569432000,6.60243212890625,0.08165603876113892,0.025161810219287872,-0.11848267167806625
1779786627579514000,6.61251416015625,0.07800032198429108,0.027893412858247757,-0.18059077858924866
1779786627589596200,6.62259619140625,0.06989988684654236,0.06076473370194435,-0.2264327108860016
1779786627599677200,6.63267724609375,0.049340542405843735,0.11406309902667999,-0.26162266731262207
1779786627609759000,6.642759033203125,0.026644675061106682,0.15172800421714783,-0.2798433005809784
1779786627619841000,6.652841064453125,0.0014820639044046402,0.16465525329113007,-0.2802579700946808
1779786627629923000,6.662923095703125,-0.020043719559907913,0.14776448905467987,-0.27787545323371887
1779786627640005000,6.673005126953125,-0.04516585171222687,0.11488109827041626,-0.2520686089992523
1779786627650087200,6.683087158203125,-0.06781899929046631,0.07866011559963226,-0.21207337081432343
1779786627660169200,6.693169189453125,-0.09355738759040833,0.07014145702123642,-0.17613108456134796
1779786627670250000,6.70325,-0.11098642647266388,0.07813792675733566,-0.13793517649173737
1779786627680332000,6.71333203125,-0.1122136116027832,0.10159212350845337,-0.09033995121717453
1779786627690413800,6.723413818359375,-0.10854395478963852,0.15175427496433258,-0.042082205414772034
1779786627700496000,6.733495849609375,-0.10409141331911087,0.20493599772453308,-0.0051172636449337006
1779786627710578000,6.743577880859375,-0.09961290657520294,0.22257937490940094,0.017416371032595634
1779786627720660000,6.753659912109375,-0.0833071693778038,0.21317335963249207,0.03164297714829445
1779786627730742000,6.763741943359375,-0.08526276051998138,0.19576379656791687,0.05215180665254593
1779786627740824000,6.773823974609375,-0.09357741475105286,0.15679828822612762,0.0775599554181099
1779786627750905000,6.783905029296875,-0.10000903904438019,0.09614220261573792,0.10114692151546478
1779786627760987100,6.793987060546875,-0.10442855954170227,0.019205614924430847,0.12538114190101624
1779786627771069000,6.80406884765625,-0.11977925151586533,-0.07748615741729736,0.1349792182445526
1779786627781151000,6.81415087890625,-0.11251229047775269,-0.1689031422138214,0.13967037200927734
1779786627791233000,6.82423291015625,-0.08988352119922638,-0.24853599071502686,0.1368517130613327
1779786627801315000,6.834315185546875,-0.05077872797846794,-0.26606041193008423,0.12753890454769135
1779786627811397000,6.844397216796875,0.0006109140813350677,-0.19972684979438782,0.111790731549263
1779786627821478100,6.85447802734375,0.04213785380125046,-0.07585498690605164,0.09515449404716492
1779786627831560000,6.864559814453125,0.07227320224046707,0.025724031031131744,0.09218999743461609
1779786627841642000,6.87464208984375,0.08818532526493073,0.04129660129547119,0.09423291683197021
1779786627851723800,6.884723876953125,0.0887114629149437,0.0019220379181206226,0.09920404851436615
1779786627861805600,6.8948056640625,0.007704230025410652,-0.044655051082372665,0.11550658941268921
1779786627871887600,6.9048876953125,-0.0182876605540514,-0.013633865863084793,0.13451413810253143
1779786627881969700,6.9149697265625,0.011661982163786888,-0.01669357158243656,0.11432205885648727
1779786627892050700,6.92505078125,0.06395664066076279,-0.012822798453271389,0.06818902492523193
1779786627902132700,6.9351328125,0.0922418087720871,0.012736356817185879,0.028249604627490044
1779786627912214500,6.945214599609375,0.08296270668506622,0.011227993294596672,0.0023188793566077948
1779786627922296600,6.955296630859375,0.05821555107831955,0.00025896448642015457,-0.026388131082057953
1779786627932378600,6.965378662109375,0.030793508514761925,-0.02211061306297779,-0.059951141476631165
1779786627942460400,6.97546044921875,0.013882966712117195,-0.07541351765394211,-0.08053098618984222
1779786627952542500,6.98554248046875,0.003416982479393482,-0.12912696599960327,-0.09545405209064484
1779786627962624500,6.99562451171875,0.0075858947820961475,-0.12562517821788788,-0.1049271821975708
1779786627972705500,7.00570556640625,0.03790126368403435,-0.09252598881721497,-0.10646947473287582
1779786627982787600,7.01578759765625,0.05326317623257637,-0.06077791005373001,-0.09733723104000092
1779786627992869600,7.02586962890625,0.04819179326295853,-0.019575510174036026,-0.08884985744953156
1779786628002951700,7.03595166015625,0.028628211468458176,0.029244229197502136,-0.08212856948375702
1779786628013033700,7.04603369140625,0.011980772018432617,0.05219876393675804,-0.085121288895607
1779786628023115500,7.056115478515625,-0.0010820329189300537,0.058890487998723984,-0.0939486026763916
1779786628033197600,7.066197509765625,-0.00626481045037508,0.03942171856760979,-0.09189264476299286
1779786628043279600,7.076279541015625,-0.012746678665280342,-0.023404916748404503,-0.07929935306310654
1779786628053360600,7.086360595703125,-0.023837000131607056,-0.08377616852521896,-0.06035253405570984
1779786628063442700,7.096442626953125,-0.04395558685064316,-0.09274862706661224,-0.04307208210229874
1779786628073524700,7.106524658203125,-0.07113424688577652,-0.06486785411834717,-0.01579929143190384
1779786628083606800,7.116606689453125,-0.10160720348358154,0.008476399816572666,0.012401720508933067
1779786628093688800,7.126688720703125,-0.10949190706014633,0.06953635066747665,0.0452219620347023
1779786628103770600,7.1367705078125,-0.08099421858787537,0.033216692507267,0.08902722597122192
1779786628113852700,7.146852783203125,-0.032698944211006165,-0.041342779994010925,0.12866133451461792
1779786628123934700,7.156934814453125,0.0014238725416362286,-0.03812035545706749,0.1412314474582672
1779786628134015500,7.167015380859375,0.018659546971321106,0.03543522208929062,0.13593325018882751
1779786628144097500,7.17709765625,0.023835401982069016,0.15540263056755066,0.11740750819444656
1779786628154179600,7.1871796875,0.012218124233186245,0.28187939524650574,0.0824337750673294
1779786628164261600,7.19726171875,-0.01846601814031601,0.34609538316726685,0.05320558324456215
1779786628174343700,7.20734375,-0.05508408322930336,0.3261362910270691,0.041180569678545
1779786628184425500,7.217425537109375,-0.0747523307800293,0.21578076481819153,0.04232120141386986
1779786628194507500,7.227507568359375,-0.06854399293661118,0.08484549075365067,0.05286620929837227
1779786628204589600,7.237589599609375,-0.04064524918794632,-0.006622643675655127,0.06219686195254326
1779786628214670600,7.247670654296875,-0.007688680198043585,-0.019042328000068665,0.05874529108405113
1779786628224752600,7.257752685546875,0.0213264599442482,0.014512437395751476,0.05054594948887825
1779786628234834700,7.267834716796875,0.044585131108760834,0.06312884390354156,0.025226393714547157
1779786628244916700,7.277916748046875,0.0525013767182827,0.10103574395179749,-0.0007687218021601439
1779786628254998800,7.287998779296875,0.049536675214767456,0.12124458700418472,-0.019759342074394226
1779786628265080600,7.29808056640625,0.04877873882651329,0.11460133641958237,-0.028483858332037926
1779786628275162600,7.30816259765625,0.04427405074238777,0.07915008068084717,-0.03618641942739487
1779786628285244700,7.31824462890625,0.04187880456447601,0.01545499637722969,-0.048745088279247284
1779786628295326700,7.32832666015625,0.050664160400629044,-0.027020234614610672,-0.05219230800867081
1779786628305407500,7.338407470703125,0.05292358621954918,-0.033588655292987823,-0.05159789323806763
1779786628315489500,7.348489501953125,0.050905417650938034,-0.028027864173054695,-0.045986924320459366
1779786628325571600,7.358571533203125,0.02939240261912346,0.004078407306224108,-0.04066433012485504
1779786628335653600,7.368653564453125,-0.000649336026981473,0.034117840230464935,-0.042068786919116974
1779786628345735400,7.3787353515625,-0.029312938451766968,0.06506031006574631,-0.034562934190034866
1779786628355817500,7.3888173828125,-0.05844102054834366,0.09933077543973923,-0.02128419280052185
1779786628365899500,7.3988994140625,-0.06792879104614258,0.0848277360200882,0.004068567883223295
1779786628375981600,7.408981689453125,-0.07065720856189728,0.035709723830223083,0.03277478367090225
1779786628386063600,7.419063720703125,-0.07058849930763245,-0.007492341101169586,0.05085684359073639
1779786628396144600,7.42914453125,-0.07320229709148407,-0.026154715567827225,0.06805147230625153
1779786628406226700,7.439226806640625,-0.07176312059164047,-0.018985485658049583,0.06995909661054611
1779786628416308700,7.449308837890625,-0.06086228787899017,0.008404785767197609,0.06380265206098557
1779786628426390500,7.459390625,-0.04681704193353653,0.031315695494413376,0.06341490149497986
1779786628436472600,7.46947265625,-0.03925762698054314,0.057686105370521545,0.05974617972970009
1779786628446554600,7.4795546875,-0.028889672830700874,0.06839734315872192,0.056412432342767715
1779786628456636700,7.48963671875,-0.03256285935640335,0.03535965085029602,0.06687676906585693
1779786628466718700,7.49971875,-0.019419094547629356,-0.008405407890677452,0.07454746961593628
1779786628476800800,7.50980078125,-0.011201972141861916,-0.03921731933951378,0.08101241290569305
1779786628486881800,7.5198818359375,-0.006494568660855293,-0.0354156568646431,0.08083691447973251
1779786628496963800,7.5299638671875,-0.001238278578966856,-0.048484865576028824,0.07675086706876755
1779786628507045600,7.540045654296875,0.010107586160302162,-0.07521181553602219,0.07544618844985962
1779786628517127700,7.550127685546875,0.03138589859008789,-0.08320441842079163,0.07661885768175125
1779786628527209500,7.56020947265625,0.038285885006189346,-0.04104790836572647,0.07047788053750992
1779786628537291500,7.57029150390625,0.04277091473340988,0.015723932534456253,0.046173345297575
1779786628547373600,7.58037353515625,0.050246674567461014,0.03503984212875366,0.02415299415588379
1779786628557455600,7.59045556640625,0.058784354478120804,0.019775375723838806,-0.0050888159312307835
1779786628567537700,7.60053759765625,0.05845332518219948,0.002256037201732397,-0.04056664928793907
1779786628577618700,7.61061865234375,0.05533139407634735,-0.006598178762942553,-0.07179734855890274
1779786628587700500,7.620700439453125,0.0456172451376915,-0.01696985960006714,-0.10025561600923538
1779786628597782500,7.630782470703125,0.0343598909676075,-0.031759727746248245,-0.11072298139333725
1779786628607864600,7.640864501953125,0.0266665481030941,-0.04870062693953514,-0.10587363690137863
1779786628617946600,7.650946533203125,0.029972562566399574,-0.05162358656525612,-0.09663628041744232
1779786628628028700,7.661028564453125,0.032130252569913864,-0.02184625342488289,-0.08710721880197525
1779786628638110700,7.67111083984375,0.027796702459454536,0.02231283113360405,-0.0722077414393425
1779786628648192800,7.68119287109375,0.017489736899733543,0.0353708416223526,-0.05627964064478874
1779786628658274600,7.691274658203125,-0.00008127791807055473,0.009240270592272282,-0.03892435505986214
1779786628668356600,7.701356689453125,-0.017729513347148895,-0.029210980981588364,-0.026462892070412636
1779786628678437600,7.711437744140625,-0.031617097556591034,-0.05760693922638893,-0.012375833466649055
1779786628688519700,7.721519775390625,-0.042045507580041885,-0.07567861676216125,0.0077994754537940025
1779786628698601700,7.731601806640625,-0.0388525016605854,-0.07835674285888672,0.033717647194862366
1779786628708683800,7.741683837890625,-0.03565298020839691,-0.05357896164059639,0.061405204236507416
1779786628718765800,7.751765869140625,-0.027462907135486603,-0.02614845149219036,0.08620093017816544
1779786628728847600,7.76184765625,-0.02846132591366768,-0.02011719159781933,0.1127220168709755
1779786628738929700,7.7719296875,-0.03866412490606308,-0.009699922055006027,0.13372007012367249
1779786628749011700,7.78201171875,-0.049652326852083206,-0.0108341621235013,0.1441173106431961
1779786628759093500,7.792093505859375,-0.05676683783531189,-0.013392340391874313,0.15709835290908813
1779786628769175600,7.802175537109375,-0.05251403525471687,-0.011768078431487083,0.16502125561237335
1779786628779257600,7.812257568359375,-0.04359697178006172,-0.00028585968539118767,0.15424875915050507
1779786628789338600,7.822338623046875,-0.027187906205654144,0.04227225109934807,0.138336643576622
1779786628799420700,7.832420654296875,-0.007159071043133736,0.08617419749498367,0.1290275603532791
1779786628809502700,7.842502685546875,0.006123711355030537,0.08893296122550964,0.12728051841259003
1779786628819584500,7.85258447265625,0.02220834605395794,0.061128027737140656,0.1284359246492386
1779786628829666600,7.86266650390625,0.02606353908777237,0.05249805748462677,0.1188189908862114
1779786628839748600,7.87274853515625,0.022820215672254562,0.06951398402452469,0.10922294110059738
1779786628849830400,7.882830322265625,0.026203496381640434,0.09188294410705566,0.09673671424388885
1779786628859912400,7.892912353515625,0.03170212730765343,0.09715228527784348,0.08326181769371033
1779786628869994500,7.902994384765625,0.03712112829089165,0.08304499089717865,0.07053110748529434
1779786628880076300,7.913076171875,0.04393917694687843,0.051822077482938766,0.05897589027881622
1779786628890157600,7.923157470703125,0.0533132366836071,0.021143261343240738,0.049597304314374924
1779786628900239400,7.9332392578125,0.055462587624788284,0.014690691605210304,0.03950239717960358
1779786628910321400,7.9433212890625,0.05279676243662834,0.035104088485240936,0.025188706815242767
1779786628920403500,7.953403564453125,0.04378417506814003,0.06423080712556839,0.005646676756441593
1779786628930485500,7.963485595703125,0.030104048550128937,0.06474826484918594,-0.015193624421954155
1779786628940567600,7.973567626953125,0.018842453137040138,0.052938636392354965,-0.02149212546646595
1779786628950649600,7.983649658203125,0.011866036802530289,0.028345676138997078,-0.028614483773708344
1779786628960731400,7.9937314453125,0.011811507865786552,-0.0068020885810256,-0.042514387518167496
1779786628970813400,8.0038134765625,0.014104489237070084,-0.012652253732085228,-0.0526122972369194
1779786628980895500,8.0138955078125,0.01754012145102024,-0.010380204766988754,-0.05914415791630745
1779786628990977500,8.0239775390625,0.018463972955942154,-0.019847743213176727,-0.05601787194609642
1779786629001059600,8.0340595703125,0.020490167662501335,-0.02011703886091709,-0.049319446086883545
1779786629011140400,8.044140380859375,0.01408260315656662,0.0025432659313082695,-0.036496590822935104
1779786629021222400,8.054222412109375,0.006383706349879503,0.03184182196855545,-0.021359669044613838
1779786629031304400,8.064304443359376,-0.00218900921754539,0.0505950041115284,-0.004662714898586273
1779786629041386200,8.07438623046875,-0.0043032411485910416,0.05384453758597374,0.003986845724284649
1779786629051468300,8.08446826171875,-0.006016985047608614,0.037632010877132416,0.0030877627432346344
1779786629061550300,8.09455029296875,-0.015307643450796604,-0.0017319621983915567,-0.007844364270567894
1779786629071632400,8.10463232421875,-0.022092044353485107,-0.03440175577998161,-0.021093057468533516
1779786629081714400,8.11471435546875,-0.028830265626311302,-0.03381729871034622,-0.0286509171128273
1779786629091796500,8.12479638671875,-0.03841950744390488,-0.013727478682994843,-0.030480241402983665
1779786629101878500,8.13487841796875,-0.04223255440592766,0.001633740495890379,-0.01558823324739933
1779786629111960300,8.144960205078124,-0.04037952795624733,0.01807902567088604,0.007257427554577589
1779786629122042400,8.15504248046875,-0.034804701805114746,0.02651011385023594,0.03143104165792465
1779786629132123400,8.165123291015625,-0.029307404533028603,0.032917678356170654,0.062011852860450745
1779786629142205400,8.175205322265626,-0.03382467105984688,0.012956595048308372,0.09848219901323318
1779786629152287500,8.18528759765625,-0.03949480876326561,-0.01239137165248394,0.13177144527435303
1779786629162369500,8.19536962890625,-0.03739465773105621,-0.016861913725733757,0.15770605206489563
1779786629172451600,8.20545166015625,-0.037817832082509995,-0.001171100651845336,0.18084493279457092
1779786629182533400,8.215533447265624,-0.03693804144859314,0.021538689732551575,0.18966954946517944
1779786629192615400,8.225615478515625,-0.02882392145693302,0.036649201065301895,0.1953338235616684
1779786629202697500,8.235697509765625,-0.01671118475496769,0.04233568161725998,0.19189421832561493
1779786629212779500,8.245779541015626,-0.0014547344762831926,0.02062266506254673,0.1779046356678009
1779786629222861600,8.255861572265625,0.016243118792772293,-0.04272301495075226,0.16427530348300934
1779786629232943600,8.265943603515625,0.02687632292509079,-0.10981737077236176,0.13622848689556122
1779786629243025700,8.276025634765626,0.03264922276139259,-0.12645907700061798,0.1116696298122406
1779786629253106400,8.2861064453125,0.0388738289475441,-0.11946109682321548,0.07278161495923996
1779786629263188500,8.2961884765625,0.0452553890645504,-0.10909197479486465,0.030169792473316193
1779786629273270300,8.306270263671875,0.05343369022011757,-0.0864657610654831,-0.005823095329105854
1779786629283352300,8.316352294921876,0.06765143573284149,-0.06596112251281738,-0.035584598779678345
1779786629293434400,8.326434326171874,0.07967827469110489,-0.04536503180861473,-0.06253818422555923
1779786629303516400,8.336516357421875,0.08860492706298828,-0.03803052753210068,-0.08463038504123688
1779786629313598500,8.346598388671875,0.07947215437889099,-0.033622730523347855,-0.1014021784067154
1779786629323680500,8.356680419921876,0.06354264169931412,-0.027135208249092102,-0.10811124742031097
1779786629333762300,8.36676220703125,0.0506042055785656,-0.021933522075414658,-0.102458156645298
1779786629343844400,8.37684423828125,0.032488901168107986,-0.01804072968661785,-0.09980906546115875
1779786629353926400,8.386926513671876,0.025725536048412323,-0.007313251029700041,-0.0958486795425415
1779786629364008400,8.397008544921874,0.014607289806008339,0.012419704347848892,-0.09142669290304184
1779786629374090500,8.407090576171875,-0.0030579897575080395,0.028637556359171867,-0.09396335482597351
1779786629384172500,8.417172607421875,-0.02098258212208748,0.025971468538045883,-0.09434372186660767
1779786629394253600,8.427253662109376,-0.036484576761722565,0.01994340308010578,-0.09057481586933136
1779786629404335600,8.437335693359374,-0.05653216317296028,0.008295852690935135,-0.07872974872589111
1779786629414417400,8.44741748046875,-0.06852862983942032,-0.013798264786601067,-0.06268100440502167
1779786629424499500,8.45749951171875,-0.06549309939146042,-0.009424490854144096,-0.04295775666832924
1779786629434581500,8.46758154296875,-0.06662707030773163,0.0035080849193036556,-0.025178760290145874
1779786629444663600,8.47766357421875,-0.06294257938861847,0.005181284621357918,-0.020784176886081696
1779786629454745600,8.48774560546875,-0.04654496908187866,-0.010292213410139084,-0.022631611675024033
1779786629464827600,8.49782763671875,-0.04558075964450836,-0.052660901099443436,-0.011451099067926407
1779786629474909400,8.507909423828124,-0.044506970793008804,-0.104139544069767,0.0063691772520542145
1779786629484991200,8.5179912109375,-0.04206965118646622,-0.1351013481616974,0.012142591178417206
1779786629495073300,8.5280732421875,-0.031214341521263123,-0.13077370822429657,0.01637275516986847
1779786629505155300,8.5381552734375,-0.02305331826210022,-0.10615678876638412,0.012718835845589638
1779786629515237400,8.5482373046875,-0.011805456131696701,-0.07492031157016754,0.00794405397027731
1779786629525319400,8.5583193359375,0.007262855768203735,-0.051636289805173874,0.003099163295701146
1779786629535400400,8.568400390625,0.025150243192911148,-0.03489699214696884,-0.01000092551112175
1779786629545482500,8.578482421875,0.04465069994330406,-0.02059464529156685,-0.01843467727303505
1779786629555564300,8.588564208984375,0.056946247816085815,-0.011163594201207161,-0.023700810968875885
1779786629565646300,8.598646240234375,0.06340884417295456,0.006167525891214609,-0.029010118916630745
1779786629575728400,8.608728271484376,0.07104306668043137,0.04174229875206947,-0.031292978674173355
1779786629585810400,8.618810546875,0.07616062462329865,0.09371344745159149,-0.014719447121024132
1779786629595892500,8.628892578125,0.08478473126888275,0.14117629826068878,-0.004450030624866486
1779786629605974500,8.638974609375,0.09470124542713165,0.2121487557888031,-0.004874475300312042
1779786629616056300,8.649056396484376,0.09997137635946274,0.22451354563236237,-0.0016275495290756226
1779786629626138400,8.659138427734375,0.09897194057703018,0.17006270587444305,0.015704823657870293
1779786629636220400,8.669220458984375,0.09262562543153763,0.10061545670032501,0.03803463280200958
1779786629646302500,8.679302490234376,0.08366890996694565,0.03201840817928314,0.062098365277051926
1779786629656384500,8.689384521484374,0.07876256853342056,-0.001526771578937769,0.08453177660703659
1779786629666466600,8.699466552734375,0.07449512183666229,-0.011966465041041374,0.10547465085983276
1779786629676548600,8.709548583984375,0.07422614097595215,-0.019021444022655487,0.10567732155323029
1779786629686630400,8.71963037109375,0.0738195925951004,-0.014339248649775982,0.10055693984031677
1779786629696711400,8.72971142578125,0.07516022771596909,-0.03113527223467827,0.08774633705615997
1779786629706793500,8.73979345703125,0.06505466997623444,-0.03937322646379471,0.07031001895666122
1779786629716875300,8.749875244140625,0.04996679723262787,-0.03340880945324898,0.03568892925977707
1779786629726957300,8.759957275390626,0.040233366191387177,-0.03678881749510765,-0.007049769628793001
1779786629737039400,8.770039306640625,0.030234264209866524,-0.040534019470214844,-0.041657812893390656
1779786629747121400,8.780121337890625,0.015130866318941116,-0.057364571839571,-0.07148601114749908
1779786629757203500,8.790203369140626,0.016638481989502907,-0.0854441449046135,-0.09672478586435318
1779786629767285200,8.80028515625,0.025750743225216866,-0.09340812265872955,-0.11060954630374908
1779786629777367300,8.8103671875,0.025692153722047806,-0.06527768075466156,-0.11913299560546875
1779786629787449300,8.820449462890625,0.00833960808813572,-0.026697101071476936,-0.10952086001634598
1779786629797531400,8.830531494140626,-0.0003604067023843527,-0.009465117007493973,-0.09651371091604233
1779786629807613400,8.840613525390625,-0.022668637335300446,-0.0042113340459764,-0.08086758852005005
1779786629817695500,8.850695556640625,-0.038918979465961456,-0.017065614461898804,-0.062258485704660416
1779786629827777300,8.86077734375,-0.050326552242040634,-0.02389628440141678,-0.028208594769239426
1779786629837859300,8.870859375,-0.059063319116830826,-0.025198303163051605,0.011009914800524712
1779786629847941400,8.88094140625,-0.06750202924013138,-0.021316397935152054,0.05582386627793312
1779786629858023400,8.8910234375,-0.07080115377902985,-0.023735346272587776,0.09508045762777328
1779786629868105500,8.90110546875,-0.08050663024187088,-0.01916295476257801,0.12187784910202026
1779786629878186500,8.9111865234375,-0.08854512125253677,-0.009653338231146336,0.13794337213039398
1779786629888268500,8.9212685546875,-0.09668685495853424,-0.012648257426917553,0.15085148811340332
1779786629898350600,8.9313505859375,-0.0902814269065857,-0.03004056215286255,0.15737676620483398
1779786629908432400,8.941432373046876,-0.07380365580320358,-0.04632602632045746,0.14695113897323608
1779786629918514400,8.951514404296875,-0.04966209828853607,-0.059959813952445984,0.12540695071220398
1779786629928596500,8.961596435546875,-0.024730660021305084,-0.07184582203626633,0.10436015576124191
1779786629938678500,8.971678466796876,0.0028572925366461277,-0.07344745099544525,0.07770856469869614
1779786629948760600,8.981760498046874,0.02219012752175331,-0.06486174464225769,0.048792432993650436
1779786629958842600,8.991842529296875,0.034249186515808105,-0.06586042791604996,0.016240617260336876
1779786629968924400,9.00192431640625,0.03519880026578903,-0.09431368112564087,-0.015147882513701916
1779786629979006500,9.01200634765625,0.03711947053670883,-0.09973427653312683,-0.05710252374410629
1779786629989088500,9.022088623046875,0.029477983713150024,-0.08812706172466278,-0.09370525926351547
1779786629999170600,9.032170654296875,0.024607595056295395,-0.08132348209619522,-0.12197711318731308
1779786630009252400,9.04225244140625,0.018188849091529846,-0.09779124706983566,-0.14699479937553406
1779786630019334400,9.05233447265625,0.027281679213047028,-0.10735785216093063,-0.15643757581710815
1779786630029416400,9.06241650390625,0.027970783412456512,-0.11515447497367859,-0.1591397225856781
1779786630039498200,9.072498291015625,0.02271956577897072,-0.11456591635942459,-0.15336227416992188
1779786630049580300,9.082580322265626,0.024472855031490326,-0.1040029376745224,-0.14846090972423553
1779786630059662300,9.092662353515625,0.016517193987965584,-0.07623708993196487,-0.14106877148151398
1779786630069744400,9.102744384765625,0.01837354525923729,-0.04947659373283386,-0.1297808438539505
1779786630079825400,9.112825439453125,0.01910564675927162,-0.030789991840720177,-0.11966907978057861
1779786630089907500,9.122907470703124,0.022044774144887924,-0.001806766027584672,-0.11202444136142731
1779786630099989500,9.132989501953125,0.011959648691117764,0.024099666625261307,-0.10971308499574661
1779786630110071300,9.1430712890625,0.0025886562652885914,0.033095937222242355,-0.11356526613235474
1779786630120153300,9.1531533203125,-0.010461365804076195,0.03693408519029617,-0.12187406420707703
1779786630130235400,9.1632353515625,-0.0203032735735178,0.020723698660731316,-0.13673029839992523
1779786630140317400,9.1733173828125,-0.026487400755286217,-0.011897893622517586,-0.14226461946964264
1779786630150399500,9.1833994140625,-0.03793041780591011,-0.042635053396224976,-0.1371767222881317
1779786630160481500,9.1934814453125,-0.03930594027042389,-0.06561759859323502,-0.12766045331954956
1779786630170563600,9.2035634765625,-0.03027733974158764,-0.04107541963458061,-0.11228823661804199
1779786630180645400,9.213645263671875,-0.03700874745845795,-0.0147055983543396,-0.08650830388069153
1779786630190727400,9.2237275390625,-0.0543338842689991,-0.023826073855161667,-0.07253873348236084
1779786630200809500,9.2338095703125,-0.06721879541873932,-0.009424764662981033,-0.05967699736356735
1779786630210891500,9.2438916015625,-0.0713271051645279,0.024168021976947784,-0.034031983464956284
1779786630220973600,9.2539736328125,-0.0864458680152893,0.038915008306503296,-0.0054314956068992615
1779786630231055600,9.2640556640625,-0.08785515278577805,0.04254923388361931,0.01751701347529888
1779786630241137400,9.274137451171875,-0.07693405449390411,0.04122218117117882,0.03899860382080078
1779786630251219500,9.284219482421875,-0.057711027562618256,0.020924676209688187,0.05435096099972725
1779786630261301500,9.294301513671876,-0.037974074482917786,-0.03579772636294365,0.05994226783514023
1779786630271383600,9.304383544921874,-0.010268350131809711,-0.09651196002960205,0.06118181347846985
1779786630281465600,9.314465576171875,0.007456318475306034,-0.11278760433197021,0.05479395389556885
1779786630291547600,9.324547607421875,0.010064821690320969,-0.0849858745932579,0.04160992056131363
1779786630301629400,9.33462939453125,0.016924327239394188,-0.06029677763581276,0.02694043144583702
1779786630311710500,9.34471044921875,0.03113342449069023,-0.019814124330878258,0.0014924214920029044
1779786630321792300,9.354792236328125,0.04459144175052643,0.036592427641153336,-0.027375712990760803
1779786630331874300,9.364874267578125,0.057718425989151,0.08254320919513702,-0.05025108531117439
1779786630341956400,9.374956298828126,0.06958813965320587,0.08665672689676285,-0.055073272436857224
1779786630352038400,9.385038330078125,0.0765913799405098,0.0675894245505333,-0.05324845016002655
1779786630362120400,9.395120361328125,0.07835492491722107,0.04722742736339569,-0.04775434732437134
1779786630372202500,9.405202392578126,0.07660768926143646,0.021703727543354034,-0.0420471616089344
1779786630382284300,9.4152841796875,0.06998494267463684,0.0027273735031485558,-0.027022674679756165
1779786630392366300,9.425366455078125,0.05300035700201988,-0.008006086573004723,-0.02111288718879223
1779786630402448400,9.435448486328125,0.05180619657039642,0.006166724022477865,-0.022151784971356392
1779786630412530400,9.445530517578124,0.04941489174962044,0.036239150911569595,-0.027011903002858162
1779786630422612500,9.455612548828125,0.0481746569275856,0.06200763210654259,-0.03678783029317856
1779786630432694500,9.465694580078125,0.051369305700063705,0.06376855075359344,-0.04791124165058136
1779786630442776300,9.4757763671875,0.046381738036870956,0.03949809819459915,-0.05537448450922966
1779786630452858400,9.4858583984375,0.037266746163368225,0.0055281613022089005,-0.06411535292863846
1779786630462940400,9.4959404296875,0.03372953459620476,-0.0214986614882946,-0.06935299187898636
1779786630473022500,9.5060224609375,0.032297875732183456,-0.032516442239284515,-0.06766045093536377
1779786630483104500,9.5161044921875,0.0402226448059082,-0.02609662339091301,-0.0680663138628006
1779786630493186600,9.5261865234375,0.048038166016340256,-0.010976877994835377,-0.05955463647842407
1779786630503268600,9.5362685546875,0.059951819479465485,0.004894763231277466,-0.0569324865937233
1779786630513350400,9.546350341796876,0.07175488770008087,0.011142794042825699,-0.06306196004152298
1779786630523432400,9.556432373046874,0.062565378844738,0.0013807117938995361,-0.0867273360490799
1779786630533514500,9.566514404296875,0.056744083762168884,-0.01628919318318367,-0.11431971192359924
1779786630543596500,9.576596435546875,0.038593046367168427,-0.027860628440976143,-0.1303764432668686
1779786630553678600,9.5866787109375,0.016254667192697525,-0.016409389674663544,-0.1309663951396942
1779786630563760600,9.5967607421875,0.0007188497111201286,0.010619032196700573,-0.12042266875505447
1779786630573842400,9.606842529296875,-0.00950775109231472,0.01071835681796074,-0.10237223654985428
1779786630583924500,9.616924560546876,-0.011356517672538757,-0.0033559163566678762,-0.0747280865907669
1779786630594006500,9.627006591796874,-0.01079241931438446,-0.014556480571627617,-0.041899923235177994
1779786630604088600,9.637088623046875,-0.012347439303994179,-0.026998236775398254,-0.02183859795331955
1779786630614170400,9.64717041015625,-0.015216846950352192,-0.038690872490406036,-0.011275850236415863
1779786630624252400,9.65725244140625,-0.02678215503692627,-0.05579662322998047,-0.010017773136496544
1779786630634333400,9.66733349609375,-0.04344628006219864,-0.08112475275993347,-0.012317173182964325
1779786630644415500,9.67741552734375,-0.0529702752828598,-0.09717162698507309,-0.01662270538508892
1779786630654497300,9.687497314453125,-0.05538344755768776,-0.09075230360031128,-0.02850351482629776
1779786630664579300,9.697579345703126,-0.047589972615242004,-0.0803539901971817,-0.02927769534289837
1779786630674661400,9.707661376953125,-0.03598279505968094,-0.0794125497341156,-0.016027996316552162
1779786630684743400,9.717743408203125,-0.024822283536195755,-0.09246177226305008,-0.01222207210958004
1779786630694825500,9.727825439453126,-0.016478652134537697,-0.12997578084468842,0.0010117085184901953
1779786630704907500,9.737907470703124,-0.01950107514858246,-0.14070698618888855,0.015198900364339352
1779786630714989300,9.7479892578125,-0.030902812257409096,-0.11325227469205856,0.028108039870858192
1779786630725071400,9.7580712890625,-0.03819134831428528,-0.07444602251052856,0.041417721658945084
1779786630735153400,9.7681533203125,-0.04479625076055527,-0.04957599565386772,0.06186381354928017
1779786630745235500,9.7782353515625,-0.03524642065167427,-0.02688319981098175,0.08001378923654556
1779786630755317500,9.7883173828125,-0.01804518885910511,-0.010772263631224632,0.0945042222738266
1779786630765399600,9.798399658203126,0.004496071953326464,-0.014792571775615215,0.11088293045759201
1779786630775481300,9.8084814453125,0.02436605654656887,-0.03549717366695404,0.12329664081335068
1779786630785563400,9.8185634765625,0.04533844813704491,-0.040030404925346375,0.12594115734100342
1779786630795645400,9.8286455078125,0.05839075148105621,-0.022647760808467865,0.11741377413272858
1779786630805727500,9.8387275390625,0.062362320721149445,0.00644301250576973,0.10941816866397858
1779786630815809500,9.8488095703125,0.07010247558355331,0.020887715741991997,0.10330787301063538
1779786630825891600,9.8588916015625,0.07940170168876648,0.02680365927517414,0.08260685205459595
1779786630835973400,9.868973388671876,0.08837812393903732,0.04132598266005516,0.05586400628089905
1779786630846055400,9.879055419921874,0.09017682075500488,0.02695077285170555,0.030160510912537575
1779786630856138000,9.889137939453125,0.07885973900556564,-0.013516956940293312,0.012467772699892521
1779786630866220000,9.899219970703125,0.0636293888092041,-0.03865692764520645,-0.0018571047112345695
1779786630876302000,9.909302001953124,0.03948573023080826,-0.03914107382297516,-0.015503322705626488
1779786630886383900,9.9193837890625,0.023754969239234924,-0.020590828731656075,-0.02598525770008564
1779786630896465700,9.929465576171875,0.0128384530544281,0.0007189079187810421,-0.03786322474479675
1779786630906547700,9.939547607421876,0.0007088207639753819,0.03916430100798607,-0.045377060770988464
1779786630916629800,9.949629638671874,-0.0036189223174005747,0.07038513571023941,-0.048063602298498154
1779786630926711800,9.9597119140625,-0.0040375711396336555,0.0906967967748642,-0.056382786482572556
1779786630936793900,9.9697939453125,-0.01037483662366867,0.09814610332250595,-0.058210186660289764
1779786630946876000,9.9798759765625,-0.028515756130218506,0.08050825446844101,-0.05477417632937431
1779786630956957700,9.989957763671875,-0.045284926891326904,0.0731731653213501,-0.05911482870578766
1779786630967039700,10.000039794921875,-0.06870370358228683,0.06739490479230881,-0.06251674890518188
1779786630977121800,10.010121826171876,-0.08940808475017548,0.060422077775001526,-0.05834760516881943
1779786630987203800,10.020203857421874,-0.10454842448234558,0.05262593924999237,-0.04640306159853935
1779786630997286000,10.030285888671875,-0.10847271233797073,0.054198943078517914,-0.035996850579977036
1779786631007368000,10.040367919921875,-0.11059285700321198,0.05447990447282791,-0.012249975465238094
1779786631017449700,10.05044970703125,-0.1181725561618805,0.03573920950293541,0.010477946139872074
1779786631027531800,10.06053173828125,-0.11202730983495712,0.02521146647632122,0.03561072796583176
1779786631037613800,10.07061376953125,-0.10903270542621613,0.020889032632112503,0.06528677046298981
1779786631047696000,10.08069580078125,-0.10216974467039108,0.027402326464653015,0.08363807946443558
1779786631057778000,10.09077783203125,-0.09217575937509537,0.029270503669977188,0.09663787484169006
1779786631067860000,10.10085986328125,-0.07142068445682526,0.029180757701396942,0.09985870122909546
1779786631077942000,10.11094189453125,-0.04971533641219139,0.026574518531560898,0.10154950618743896
1779786631088023800,10.12102392578125,-0.020915377885103226,0.011732724495232105,0.10264832526445389
1779786631098105900,10.13110595703125,0.005014939699321985,0.011831228621304035,0.09481406956911087
1779786631108188000,10.14118798828125,0.02531461790204048,0.002400442957878113,0.07427310943603516
1779786631118270000,10.15127001953125,0.04450954496860504,0.01782500185072422,0.05049099773168564
1779786631128352000,10.16135205078125,0.05166572332382202,0.03718751668930054,0.025673797354102135
1779786631138434000,10.17143408203125,0.06149275228381157,0.04829395189881325,0.004899197723716497
1779786631148515800,10.181515869140625,0.07137174904346466,0.04100887477397919,-0.008868812583386898
1779786631158598000,10.191597900390626,0.07152027636766434,0.021938839927315712,-0.020045919343829155
1779786631168680000,10.201679931640625,0.07617548108100891,0.006936188321560621,-0.0328405424952507
1779786631178762000,10.211761962890625,0.06912384927272797,0.008170701563358307,-0.039905473589897156
1779786631188844000,10.221843994140626,0.060338348150253296,0.01835356280207634,-0.048693105578422546
1779786631198926000,10.231926025390624,0.05103805661201477,0.04037737101316452,-0.05881071835756302
1779786631209007900,10.2420078125,0.03774408996105194,0.07378672808408737,-0.07197924703359604
1779786631219090000,10.25208984375,0.019581429660320282,0.08763954788446426,-0.08626635372638702
1779786631229172000,10.262171875,0.012472652830183506,0.07359030842781067,-0.10305385291576385
1779786631239254000,10.27225390625,-0.0015596055891364813,0.04381277412176132,-0.1052759513258934
1779786631249336000,10.282336181640625,-0.016419777646660805,0.019409168511629105,-0.10447940230369568
1779786631259417900,10.29241796875,-0.03403961658477783,-0.009645156562328339,-0.08613250404596329
1779786631269500000,10.3025,-0.0527038499712944,-0.021235767751932144,-0.05821032449603081
1779786631279581700,10.312581787109375,-0.06888848543167114,-0.005217402707785368,-0.029859181493520737
1779786631289663700,10.322663818359375,-0.08080533146858215,-0.0068840086460113525,-0.006335479207336903
1779786631299745800,10.332745849609376,-0.07834477722644806,-0.01057815458625555,0.02730916626751423
1779786631309827800,10.342827880859375,-0.0736839771270752,-0.008624193258583546,0.0618402436375618
1779786631319910000,10.352909912109375,-0.06630126386880875,-0.007340851239860058,0.08271394670009613
1779786631329992000,10.362991943359376,-0.05121845006942749,-0.013002198189496994,0.0984463021159172
1779786631340073700,10.37307373046875,-0.032904449850320816,-0.007155136670917273,0.10062635689973831
1779786631350155800,10.38315576171875,-0.0030568044167011976,0.014817806892096996,0.09415967017412186
1779786631360237800,10.39323779296875,0.02429470606148243,0.04312348738312721,0.08459047228097916
1779786631370320000,10.40331982421875,0.04974813386797905,0.03769916296005249,0.0801621675491333
1779786631380402000,10.41340185546875,0.07228610664606094,0.015584511682391167,0.061194319278001785
1779786631390484000,10.42348388671875,0.08302556723356247,0.009679749608039856,0.047414593398571014
1779786631400565800,10.433565673828125,0.08061174303293228,-0.002842322923243046,0.02887088432908058
1779786631410647800,10.443647705078124,0.07359697669744492,-0.014537595212459564,0.00933606456965208
1779786631420729900,10.453729736328125,0.07138495147228241,-0.011223822832107544,-0.009358260780572891
1779786631430812000,10.46381201171875,0.07022221386432648,0.0046070716343820095,-0.01443770807236433
1779786631440894000,10.47389404296875,0.06560903042554855,0.014190079644322395,-0.024080364033579826
1779786631450976000,10.48397607421875,0.07338839024305344,0.012696312740445137,-0.03898181393742561
1779786631461057800,10.494057861328125,0.07532715797424316,0.017749570310115814,-0.0506136417388916
1779786631471139800,10.504139892578126,0.0732397735118866,0.03698372095823288,-0.05674157291650772
1779786631481222000,10.514221923828124,0.06392569094896317,0.05783744528889656,-0.060540955513715744
1779786631491304000,10.524303955078125,0.05850642919540405,0.06519389897584915,-0.06371171772480011
1779786631501386000,10.534385986328125,0.05083080381155014,0.06034699082374573,-0.06053273007273674
1779786631511468000,10.544468017578126,0.044236015528440475,0.048702582716941833,-0.05433182790875435
1779786631521549800,10.5545498046875,0.034396667033433914,0.0435238853096962,-0.048161957412958145
1779786631531631900,10.5646318359375,0.026112638413906097,0.02427748590707779,-0.040634531527757645
1779786631541714000,10.5747138671875,0.013056401163339615,-0.0009323037229478359,-0.03349395468831062
1779786631551796000,10.5847958984375,0.0015598013997077942,-0.0017546878661960363,-0.023226138204336166
1779786631561878000,10.5948779296875,-0.014737403020262718,0.008294858038425446,-0.00412161136046052
1779786631571960000,10.6049599609375,-0.028928324580192566,0.00933934934437275,0.01653439924120903
1779786631582041900,10.615041748046876,-0.03539140522480011,0.015936311334371567,0.03700768202543259
1779786631592124000,10.6251240234375,-0.03550245985388756,0.018977906554937363,0.05283617973327637
1779786631602206000,10.6352060546875,-0.033928390592336655,0.004971055313944817,0.06438494473695755
1779786631612288000,10.6452880859375,-0.02366803027689457,-0.022098112851381302,0.06611493974924088
1779786631622370000,10.6553701171875,-0.01293606124818325,-0.03505217283964157,0.05261656641960144
1779786631632451800,10.665451904296875,-0.004497035872191191,-0.04654637724161148,0.028939733281731606
1779786631642534000,10.675533935546875,0.006383131258189678,-0.035951871424913406,0.0030612098053097725
1779786631652615700,10.68561572265625,0.01554413978010416,-0.009672330692410469,-0.0242425836622715
1779786631662697700,10.69569775390625,0.019660498946905136,-0.0017690509557724,-0.04919661208987236
1779786631672779800,10.70577978515625,0.013695551082491875,-0.003021535463631153,-0.06311109662055969
1779786631682861800,10.71586181640625,0.006572883576154709,-0.01049172505736351,-0.07252265512943268
1779786631692944000,10.72594384765625,0.00197733286768198,-0.03562957048416138,-0.07265288382768631
1779786631703026000,10.73602587890625,-0.011959752067923546,-0.057312581688165665,-0.07091610133647919
1779786631713107700,10.746107666015625,-0.023519467562437057,-0.05916507542133331,-0.05877421423792839
1779786631723189800,10.756189697265626,-0.04104163870215416,-0.04310931637883186,-0.048898689448833466
1779786631733271800,10.766271728515624,-0.049495041370391846,-0.027348995208740234,-0.037519801408052444
1779786631743353900,10.776353759765625,-0.05395590886473656,-0.004396436270326376,-0.02331661246716976
1779786631753436000,10.786435791015625,-0.059418585151433945,0.006674324627965689,-0.003604425583034754
1779786631763518000,10.79651806640625,-0.057615481317043304,0.011237147264182568,0.00927631463855505
1779786631773599700,10.806599853515625,-0.05359943211078644,0.014428946189582348,0.023531418293714523
1779786631783681800,10.816681884765625,-0.05114191398024559,0.0087682344019413,0.0357300266623497
1779786631793763800,10.826763916015626,-0.0678604394197464,-0.012444643303751945,0.05418387055397034
1779786631803846000,10.836845947265624,-0.0742584839463234,-0.021273285150527954,0.06283827871084213
1779786631813928000,10.846927978515625,-0.07608328014612198,0.004946068860590458,0.05477449297904968
1779786631824010000,10.857010009765625,-0.07168802618980408,0.03402716666460037,0.057547710835933685
1779786631834091800,10.867091796875,-0.06654705852270126,0.025858454406261444,0.05103042349219322
1779786631844173800,10.877173828125,-0.06077376753091812,0.01454862579703331,0.05006049573421478
1779786631854255000,10.887255126953125,-0.056343331933021545,0.008726421743631363,0.047438882291316986
1779786631864337200,10.897337158203126,-0.0515751913189888,-0.003915135283023119,0.03757108747959137
1779786631874419200,10.907419189453124,-0.04825635999441147,-0.0200275257229805,0.024770071730017662
1779786631884501200,10.917501220703125,-0.041344430297613144,-0.031797923147678375,0.01891196519136429
1779786631894583300,10.927583251953125,-0.0324726402759552,-0.04812895879149437,0.015396594069898129
1779786631904665300,10.937665283203126,-0.02220308594405651,-0.06215802580118179,0.022579293698072433
1779786631914747100,10.9477470703125,-0.004308241419494152,-0.07068413496017456,0.030042801052331924
1779786631924829200,10.9578291015625,0.017349140718579292,-0.0653349757194519,0.04153701663017273
1779786631934911200,10.9679111328125,0.034449297934770584,-0.047161031514406204,0.04641886055469513
1779786631944993300,10.9779931640625,0.04623962566256523,-0.028610553592443466,0.04684912785887718
1779786631955075300,10.988075439453125,0.06045211851596832,0.01150038093328476,0.041522540152072906
1779786631965157400,10.998157470703125,0.06492020189762115,0.03721647709608078,0.03690195083618164
1779786631975239200,11.0082392578125,0.06544271111488342,0.04595617204904556,0.03842421621084213
1779786631985321200,11.0183212890625,0.06084785982966423,0.040086809545755386,0.030711684376001358
1779786631995403300,11.0284033203125,0.061170365661382675,0.04017789289355278,0.01267675869166851
1779786632005485300,11.0384853515625,0.06606492400169373,0.05363659933209419,0.0018034543609246612
1779786632015567400,11.0485673828125,0.07708481699228287,0.07342841476202011,-0.007520006038248539
1779786632025649400,11.0586494140625,0.08531929552555084,0.08263401687145233,-0.01864767074584961
1779786632035731200,11.068731201171875,0.09070580452680588,0.08441460877656937,-0.022171298041939735
1779786632045813200,11.078813232421876,0.08769681304693222,0.10395237058401108,-0.035146474838256836
1779786632055895300,11.088895263671875,0.07339803874492645,0.09835707396268845,-0.05550793558359146
1779786632065977300,11.098977294921875,0.06512018293142319,0.044870201498270035,-0.07002611458301544
1779786632076059400,11.109059326171876,0.05165950208902359,-0.012963004410266876,-0.08532863855361938
1779786632086141400,11.119141357421874,0.04005790874361992,-0.0495215468108654,-0.09819070994853973
1779786632096223200,11.12922314453125,0.029391953721642494,-0.05608357489109039,-0.12388088554143906
1779786632106305300,11.13930517578125,0.016291823238134384,-0.05532613769173622,-0.14202217757701874
1779786632116388400,11.149388427734374,-0.0013569456059485674,-0.06666481494903564,-0.14973603188991547
1779786632126470400,11.159470458984375,-0.020114000886678696,-0.08867081999778748,-0.1422615647315979
1779786632136552400,11.169552490234375,-0.04493413120508194,-0.10008779168128967,-0.12424102425575256
1779786632146634200,11.17963427734375,-0.07666072249412537,-0.08925212174654007,-0.10893777757883072
1779786632156716300,11.18971630859375,-0.10139963030815125,-0.07447157055139542,-0.0813160091638565
1779786632166798300,11.19979833984375,-0.12715932726860046,-0.07502459734678268,-0.05483011156320572
1779786632176880400,11.20988037109375,-0.14264801144599915,-0.09481987357139587,-0.025096986442804337
1779786632186962400,11.21996240234375,-0.14561763405799866,-0.11119287461042404,0.00510341115295887
1779786632197044500,11.23004443359375,-0.16464965045452118,-0.12591323256492615,0.035050392150878906
1779786632207126300,11.240126220703125,-0.17087170481681824,-0.11874508112668991,0.06450813263654709
1779786632217208000,11.2502080078125,-0.15776096284389496,-0.12178028374910355,0.08892159909009933
1779786632227290000,11.2602900390625,-0.1523766666650772,-0.09377314150333405,0.09124328196048737
1779786632237372200,11.2703720703125,-0.1410619616508484,-0.044736891984939575,0.0900789424777031
1779786632247454200,11.2804541015625,-0.10877787321805954,-0.02904687449336052,0.10025176405906677
1779786632257536300,11.290536376953124,-0.08028444647789001,-0.018687710165977478,0.11458409577608109
1779786632267618300,11.300618408203125,-0.04053526744246483,0.014370033517479897,0.10613895952701569
1779786632277700000,11.3107001953125,-0.001534340437501669,0.0587228499352932,0.08239500969648361
1779786632287782100,11.3207822265625,0.03024390898644924,0.11547587066888809,0.05429792031645775
1779786632297864200,11.3308642578125,0.051197927445173264,0.18528370559215546,0.03411302715539932
1779786632307946200,11.3409462890625,0.05327048525214195,0.2073223739862442,0.013936201110482216
1779786632318028300,11.3510283203125,0.055629778653383255,0.18137359619140625,0.0025152345187962055
1779786632328110300,11.3611103515625,0.051814693957567215,0.15699200332164764,-0.003013746580109
1779786632338192100,11.371192138671875,0.03793776407837868,0.15748655796051025,-0.006970138289034367
1779786632348274200,11.381274169921875,0.01725701056420803,0.18266138434410095,-0.007076418958604336
1779786632358356200,11.391356201171876,-0.0003547391388565302,0.1651013046503067,0.0025029715616256
1779786632368438300,11.401438232421874,-0.006736358627676964,0.13239115476608276,0.02684609219431877
1779786632378520300,11.411520263671875,-0.022442616522312164,0.08856724202632904,0.054011933505535126
1779786632388602400,11.421602294921875,-0.023005425930023193,0.05798937380313873,0.06650396436452866
1779786632398684200,11.43168408203125,-0.022516999393701553,0.05356346815824509,0.06875699758529663
1779786632408766200,11.44176611328125,-0.019176125526428223,0.07672832906246185,0.058480240404605865
1779786632418848300,11.45184814453125,-0.012674815952777863,0.08094678074121475,0.04599640890955925
1779786632428930300,11.461930419921876,-0.004249292891472578,0.07162650674581528,0.033715832978487015
1779786632439013000,11.47201318359375,0.005903210025280714,0.05409810692071915,0.010964447632431984
1779786632449095200,11.48209521484375,0.008360362611711025,0.03774651885032654,-0.008002552203834057
1779786632459177200,11.49217724609375,0.011053884401917458,0.026562843471765518,-0.032681532204151154
1779786632469259300,11.50225927734375,0.011676830239593983,0.0319158211350441,-0.06029323488473892
1779786632479341300,11.51234130859375,0.017817016690969467,0.036288198083639145,-0.08311092853546143
1779786632489423400,11.52242333984375,0.022664854303002357,0.03923731669783592,-0.08858604729175568
1779786632499505400,11.53250537109375,0.021872030571103096,0.04583742842078209,-0.094652459025383
1779786632509587200,11.542587158203125,0.01808617077767849,0.05916896462440491,-0.09910484403371811
1779786632519669200,11.552669189453125,0.01874423772096634,0.06850015372037888,-0.09914079308509827
1779786632529751300,11.562751220703126,0.017728719860315323,0.08719096332788467,-0.09810047596693039
1779786632539833300,11.572833251953124,0.018392913043498993,0.11032450944185257,-0.09420773386955261
1779786632549915400,11.582915283203125,0.025497451424598694,0.13363029062747955,-0.08469042181968689
1779786632559997400,11.59299755859375,0.016499696299433708,0.1473301202058792,-0.07438505440950394
1779786632570079200,11.603079345703126,0.015982693061232567,0.13505902886390686,-0.06993503123521805
1779786632580161300,11.613161376953125,0.01605353318154812,0.12134935706853867,-0.06658637523651123
1779786632590243300,11.623243408203125,0.01602444052696228,0.11794871091842651,-0.06757298111915588
1779786632600325400,11.633325439453126,0.008959608152508736,0.12168619781732559,-0.06859217584133148
1779786632610407400,11.643407470703124,0.0021491646766662598,0.11986404657363892,-0.0702415406703949
1779786632620489500,11.653489501953125,-0.002936673816293478,0.10774080455303192,-0.06983860582113266
1779786632630571300,11.6635712890625,-0.011677165515720844,0.08893255889415741,-0.06605028361082077
1779786632640653300,11.6736533203125,-0.01877368986606598,0.057132285088300705,-0.05055893957614899
1779786632650735400,11.6837353515625,-0.022760827094316483,0.02935449406504631,-0.033731792122125626
1779786632660817200,11.693817138671875,-0.028621379286050797,0.026749655604362488,-0.022542521357536316
1779786632670899200,11.703899169921876,-0.02909012697637081,0.03798278048634529,-0.009454079903662205
1779786632680981200,11.713981201171874,-0.03184756264090538,0.028318438678979874,0.007982967421412468
1779786632691063000,11.72406298828125,-0.026378262788057327,0.013005859218537807,0.024477342143654823
1779786632701146400,11.734146484375,-0.023005368188023567,0.012570432387292385,0.03450228273868561
1779786632711228400,11.744228515625,-0.0206901952624321,0.01109129935503006,0.04871060326695442
1779786632721310500,11.754310546875,-0.015481851994991302,0.002753740642219782,0.05800529941916466
1779786632731392300,11.764392333984375,-0.005615060217678547,0.0060646249912679195,0.06028994172811508
1779786632741474000,11.77447412109375,-0.0003657035995274782,0.007489149924367666,0.05505949258804321
1779786632751556000,11.78455615234375,0.003112520556896925,0.0006273365579545498,0.05181121453642845
1779786632761638100,11.79463818359375,0.00848038773983717,0.01135721243917942,0.04900876805186272
1779786632771720200,11.80472021484375,0.01649700291454792,0.03416603431105614,0.03749093413352966
1779786632781802200,11.81480224609375,0.02400951460003853,0.05181986466050148,0.020123394206166267
1779786632791884300,11.82488427734375,0.020029768347740173,0.06678323447704315,0.004918983671814203
1779786632801966000,11.834966064453125,0.016857411712408066,0.057601720094680786,-0.007066839374601841
1779786632812048100,11.845048095703126,0.009672503918409348,0.01616930030286312,-0.007508480455726385
1779786632822130200,11.855130126953124,0.0017549265176057816,-0.04661818593740463,0.002034690696746111
1779786632832212200,11.865212158203125,-0.008952267467975616,-0.08765494078397751,0.010981246829032898
1779786632842294300,11.875294189453125,-0.009080898016691208,-0.10138034075498581,0.01418236643075943
1779786632852376600,11.88537646484375,-0.011284283362329006,-0.08170601725578308,0.02064136601984501
1779786632862458600,11.895458740234375,-0.018954452127218246,-0.05105223506689072,0.018980352208018303
1779786632872540700,11.905540771484375,-0.02883649244904518,-0.051233287900686264,0.023664550855755806
1779786632882622700,11.915622802734376,-0.02514934539794922,-0.08333156257867813,0.03205190971493721
1779786632892704800,11.925704833984375,-0.023650597780942917,-0.09492342174053192,0.037502482533454895
1779786632902786800,11.935786865234375,-0.012818987481296062,-0.08300657570362091,0.036116041243076324
1779786632912868900,11.945868896484376,0.009883449412882328,-0.05625123158097267,0.037007030099630356
1779786632922951700,11.95595166015625,0.028193745762109756,-0.020832521840929985,0.035201672464609146
1779786632933033700,11.96603369140625,0.04878030717372894,0.019805561751127243,0.02940705046057701
1779786632943115800,11.97611572265625,0.062025535851716995,0.05078531801700592,0.013817706145346165
1779786632953197800,11.98619775390625,0.06812191009521484,0.05686341971158981,-0.0010954684112221003
1779786632963279600,11.996279541015625,0.0638992041349411,0.046236876398324966,-0.013532963581383228
1779786632973361700,12.006361572265625,0.052923236042261124,0.040709465742111206,-0.022475283592939377
1779786632983443700,12.016443603515626,0.0373019315302372,0.028779305517673492,-0.019591612741351128
1779786632993525800,12.02652587890625,0.02167707122862339,0.019871627911925316,-0.004212735220789909
1779786633003607800,12.03660791015625,-0.001549155218526721,0.0029363203793764114,0.022174930199980736
1779786633013689600,12.046689697265625,-0.026078999042510986,-0.009866293519735336,0.04145914316177368
1779786633023771600,12.056771728515624,-0.04072984680533409,-0.01644403487443924,0.05113334208726883
1779786633033853400,12.066853515625,-0.06111497804522514,-0.048625051975250244,0.055090729147195816
1779786633043935500,12.076935546875,-0.07910622656345367,-0.07188989222049713,0.05281532555818558
1779786633054017500,12.087017578125,-0.08776964247226715,-0.06557750701904297,0.04157654568552971
1779786633064099600,12.097099609375,-0.09332765638828278,-0.03831525892019272,0.040230050683021545
1779786633074181600,12.107181640625,-0.0936107262969017,-0.027816791087388992,0.04331151768565178
1779786633084263700,12.117263671875,-0.09315479546785355,-0.017603034153580666,0.05386056378483772
1779786633094345500,12.127345458984376,-0.09149793535470963,-0.028347283601760864,0.06020962446928024
1779786633104428500,12.137428466796875,-0.08308634161949158,-0.053134385496377945,0.05393361672759056
1779786633114510600,12.147510498046875,-0.06641451269388199,-0.06851673871278763,0.025544509291648865
1779786633124592600,12.157592529296876,-0.055921658873558044,-0.05088501796126366,-0.014103567227721214
1779786633134674400,12.16767431640625,-0.05033629387617111,-0.03884612396359444,-0.04411298409104347
1779786633144756500,12.177756591796875,-0.04643556475639343,-0.044015053659677505,-0.060736432671546936
1779786633154838500,12.187838623046876,-0.039677273482084274,-0.06080922856926918,-0.06937222927808762
1779786633164920600,12.197920654296874,-0.03168965503573418,-0.07298173755407333,-0.06821082532405853
1779786633175002600,12.208002685546875,-0.014154021628201008,-0.0817328467965126,-0.05303814634680748
1779786633185084700,12.218084716796875,0.006514239124953747,-0.10060852766036987,-0.030922725796699524
1779786633195166500,12.22816650390625,0.02468043938279152,-0.11052296310663223,-0.013368159532546997
1779786633205248500,12.23824853515625,0.036400746554136276,-0.12071434408426285,-0.008125193417072296
1779786633215330600,12.24833056640625,0.04468902200460434,-0.13081200420856476,-0.006321928463876247
