time,seconds_elapsed,z,y,x
1779786621011269600,0.04426953125,0.05819965526461601,0.022604111582040787,-0.015175224281847477
1779786621021350700,0.0543505859375,0.024657143279910088,-0.04825328290462494,0.05684730410575867
1779786621031432700,0.0644326171875,0.058105114847421646,-0.11837618052959442,0.15423297882080078
1779786621041514500,0.074514404296875,-0.02671336941421032,-0.17080183327198029,0.24715518951416016
1779786621051595500,0.084595458984375,0.02359267696738243,-0.20307907462120056,0.31787145137786865
1779786621061677600,0.094677490234375,-0.06431134790182114,-0.19766034185886383,0.3211820125579834
1779786621071759400,0.10475927734375,0.045157093554735184,-0.16496019065380096,0.2917135953903198
1779786621081840600,0.114840576171875,-0.029527531936764717,-0.11914636194705963,0.2341560423374176
1779786621091922400,0.12492236328125,0.1032443642616272,-0.10473094135522842,0.20699365437030792
1779786621102004500,0.13500439453125,-0.010045177303254604,-0.10351360589265823,0.17933087050914764
1779786621112085500,0.14508544921875,0.12400929629802704,-0.10964687168598175,0.1702313870191574
1779786621122167600,0.15516748046875,-0.01714489795267582,-0.13874083757400513,0.1727619171142578
1779786621132249600,0.16524951171875,0.11418462544679642,-0.20104655623435974,0.21164380013942719
1779786621142330400,0.175330322265625,-0.04880908504128456,-0.2181379199028015,0.22925236821174622
1779786621152412400,0.185412353515625,0.08584752678871155,-0.17382478713989258,0.2523078918457031
1779786621162494500,0.195494384765625,-0.10394158214330673,-0.11858896166086197,0.23124147951602936
1779786621172575500,0.205575439453125,0.017650632187724113,-0.059732306748628616,0.19721293449401855
1779786621182657500,0.215657470703125,-0.1728561967611313,0.005993976723402739,0.1197383850812912
1779786621192739600,0.225739501953125,-0.014028200879693031,0.0659840777516365,0.06422772258520126
1779786621202820600,0.235820556640625,-0.15874651074409485,0.07797203212976456,-0.007123955991119146
1779786621212902700,0.245902587890625,0.02678261138498783,0.03536491468548775,-0.028021780773997307
1779786621222984400,0.255984375,-0.12387027591466904,-0.019703930243849754,-0.02781059220433235
1779786621233065700,0.266065673828125,0.016631174832582474,-0.03446876257658005,0.026610305532813072
1779786621243147500,0.2761474609375,-0.09755159169435501,-0.020309532061219215,0.07172878086566925
1779786621253229600,0.2862294921875,-0.10655626654624939,-0.004705006722360849,0.10686679184436798
1779786621263310300,0.296310302734375,-0.12559068202972412,-0.017609087750315666,0.13286004960536957
1779786621273392400,0.306392333984375,-0.13419881463050842,-0.05620308592915535,0.139533132314682
1779786621283474400,0.316474365234375,-0.13739673793315887,-0.05174202471971512,0.1188875064253807
1779786621293555500,0.326555419921875,-0.13290318846702576,-0.020476246252655983,0.06806053966283798
1779786621303637500,0.336637451171875,-0.13600337505340576,0.047082025557756424,0.02371118776500225
1779786621313719600,0.346719482421875,-0.14645947515964508,0.1474941223859787,0.003864779369905591
1779786621323800600,0.356800537109375,-0.16213831305503845,0.2354426085948944,-0.009616941213607788
1779786621333882600,0.366882568359375,-0.1680625081062317,0.2659483253955841,-0.018794726580381393
1779786621343964700,0.376964599609375,-0.1512555629014969,0.24168026447296143,-0.006074936594814062
1779786621354045700,0.387045654296875,-0.13733069598674774,0.21210826933383942,0.018339326605200768
1779786621364127500,0.39712744140625,-0.12455284595489502,0.15213574469089508,0.04574724659323692
1779786621374208500,0.40720849609375,-0.11838150769472122,0.0735759511590004,0.06177628040313721
1779786621384290600,0.41729052734375,-0.13616476953029633,-0.023199062794446945,0.04303668439388275
1779786621394372400,0.427372314453125,-0.13717329502105713,-0.046674828976392746,-0.005950034596025944
1779786621404453600,0.43745361328125,-0.123601034283638,0.006095442920923233,-0.0718451589345932
1779786621414535400,0.447535400390625,-0.11248046904802322,0.07340710610151291,-0.13069356977939606
1779786621424617500,0.457617431640625,-0.10734296590089798,0.14828747510910034,-0.16294950246810913
1779786621434698500,0.467698486328125,-0.10088533163070679,0.24337829649448395,-0.19122615456581116
1779786621444780500,0.477780517578125,-0.10216791182756424,0.27720123529434204,-0.20914629101753235
1779786621454862600,0.487862548828125,-0.12532302737236023,0.22722703218460083,-0.23027954995632172
1779786621464943400,0.497943359375,-0.15454936027526855,0.15671691298484802,-0.26501062512397766
1779786621475025400,0.508025390625,-0.1700473576784134,0.09583864361047745,-0.26571664214134216
1779786621485107500,0.518107421875,-0.18733526766300201,0.08347944915294647,-0.19190259277820587
1779786621495188500,0.5281884765625,-0.2050839066505432,0.031076159328222275,-0.12077835202217102
1779786621505270500,0.5382705078125,-0.2064884603023529,0.01486203633248806,-0.03326953947544098
1779786621515352600,0.5483525390625,-0.20298853516578674,-0.022492259740829468,0.010266751982271671
1779786621525433600,0.55843359375,-0.21230773627758026,-0.0905943512916565,-0.03711354732513428
1779786621535515600,0.568515625,-0.18098363280296326,-0.08317930996417999,-0.08713090419769287
1779786621545597400,0.578597412109375,-0.0912681296467781,-0.05060724914073944,-0.17649248242378235
1779786621555678700,0.5886787109375,0.014312094077467918,0.07962025701999664,-0.24186748266220093
1779786621565760500,0.598760498046875,0.06251583993434906,0.28236299753189087,-0.27642521262168884
1779786621575842600,0.608842529296875,0.061998654156923294,0.43885937333106995,-0.26614832878112793
1779786621585923300,0.61892333984375,0.004866660572588444,0.508969783782959,-0.02178359217941761
1779786621596005400,0.62900537109375,-0.08036674559116364,0.3458000123500824,0.12473127990961075
1779786621606087400,0.63908740234375,-0.06351666152477264,0.16201552748680115,0.20611880719661713
1779786621616168400,0.64916845703125,0.027178891003131866,-0.0392368845641613,0.25983744859695435
1779786621626250500,0.65925048828125,0.1457635909318924,-0.1925681233406067,0.3266388475894928
1779786621636332500,0.66933251953125,0.2667568624019623,-0.18120095133781433,0.37786605954170227
1779786621646413600,0.67941357421875,0.3389066755771637,-0.013924337923526764,0.4218042194843292
1779786621656495600,0.68949560546875,0.3945896625518799,0.16110819578170776,0.4272250831127167
1779786621666577700,0.69957763671875,0.42574945092201233,0.23236745595932007,0.37104278802871704
1779786621676658400,0.709658447265625,0.44861772656440735,0.21402733027935028,0.22400008141994476
1779786621686740500,0.719740478515625,0.471393346786499,0.1877366155385971,0.019057048484683037
1779786621696822500,0.729822509765625,0.45723333954811096,0.16715729236602783,-0.12463220953941345
1779786621706903600,0.739903564453125,0.38646674156188965,0.10750941187143326,-0.12129952758550644
1779786621716985300,0.7499853515625,0.27958211302757263,0.0018106831703335047,-0.0362115353345871
1779786621727066600,0.760066650390625,0.2015448361635208,-0.09016398340463638,0.012664129957556725
1779786621737148400,0.7701484375,0.16697673499584198,-0.06746719032526016,-0.020108463242650032
1779786621747230500,0.78023046875,0.11941081285476685,0.031799208372831345,-0.09912285208702087
1779786621757311500,0.7903115234375,0.07362096011638641,0.11267434805631638,-0.10463080555200577
1779786621767393500,0.8003935546875,0.03850371763110161,0.1298818290233612,-0.047441817820072174
1779786621777475600,0.8104755859375,0.016754478216171265,0.058579158037900925,-0.0027214842848479748
1779786621787556400,0.820556396484375,0.01846848987042904,-0.029883330687880516,0.0015994944842532277
1779786621797638400,0.830638427734375,0.021024325862526894,-0.08010841906070709,-0.027285417541861534
1779786621807720400,0.840720458984375,-0.008562329225242138,-0.06830768287181854,-0.06446607410907745
1779786621817801500,0.850801513671875,-0.016635701060295105,-0.025173263624310493,-0.11771145462989807
1779786621827883500,0.860883544921875,-0.02161235176026821,-0.0015968313673511147,-0.19827260076999664
1779786621837965600,0.870965576171875,-0.012122975662350655,0.011976235546171665,-0.22310978174209595
1779786621848047000,0.881047119140625,0.012922722846269608,0.12341994047164917,-0.11433163285255432
1779786621858129200,0.891129150390625,-0.013915282674133778,0.24825188517570496,0.07364971935749054
1779786621868211000,0.9012109375,-0.043591953814029694,0.24707530438899994,0.2733130156993866
1779786621878292000,0.9112919921875,-0.04579811543226242,0.1505247950553894,0.4065248668193817
1779786621888374000,0.9213740234375,-0.022769493982195854,0.06986936181783676,0.43247711658477783
1779786621898456000,0.9314560546875,0.02665744349360466,0.05018487200140953,0.3917059898376465
1779786621908537000,0.941537109375,0.08043758571147919,0.0728081613779068,0.3281099796295166
1779786621918619100,0.951619140625,0.12600773572921753,0.10888440907001495,0.29095861315727234
1779786621928701200,0.961701171875,0.14563016593456268,0.16392022371292114,0.28661125898361206
1779786621938782200,0.9717822265625,0.15063264966011047,0.22869576513767242,0.30747658014297485
1779786621948864300,0.9818642578125,0.15764369070529938,0.29504042863845825,0.34938356280326843
1779786621958946300,0.9919462890625,0.1751132309436798,0.3308093547821045,0.4037783741950989
1779786621969027000,1.002027099609375,0.18309259414672852,0.30168235301971436,0.4374026358127594
1779786621979109000,1.012109130859375,0.1894245147705078,0.22784994542598724,0.45654863119125366
1779786621989190100,1.022190185546875,0.19119605422019958,0.15452618896961212,0.4615575075149536
1779786621999272200,1.032272216796875,0.18645909428596497,0.11222001165151596,0.4417515695095062
1779786622009354200,1.042354248046875,0.16865932941436768,0.08652769774198532,0.3897048830986023
1779786622019435300,1.052435302734375,0.14890345931053162,0.06844217330217361,0.3163449168205261
1779786622029517000,1.06251708984375,0.13143445551395416,0.03993703052401543,0.22484590113162994
1779786622039599000,1.07259912109375,0.11842704564332962,0.02466193586587906,0.15374189615249634
1779786622049680100,1.08268017578125,0.0893583744764328,-0.0043987431563436985,0.09600669145584106
1779786622059762200,1.09276220703125,0.057670485228300095,-0.00894023198634386,0.03280801326036453
1779786622069844200,1.10284423828125,0.030724355950951576,0.028772525489330292,-0.056587643921375275
1779786622079925000,1.112925048828125,0.015468704514205456,0.08972881734371185,-0.170560821890831
1779786622090007000,1.123007080078125,-0.0004889564006589353,0.14760543406009674,-0.25136592984199524
1779786622100089000,1.133089111328125,-0.008537295274436474,0.20015598833560944,-0.2778095006942749
1779786622110170000,1.143170166015625,-0.02840314619243145,0.2570911943912506,-0.2573170065879822
1779786622120252200,1.153252197265625,-0.03464426472783089,0.3050272762775421,-0.19576790928840637
1779786622130334200,1.163334228515625,-0.03970533609390259,0.3248947262763977,-0.14494094252586365
1779786622140415200,1.173415283203125,-0.035532426089048386,0.3220246434211731,-0.12793798744678497
1779786622150497300,1.183497314453125,-0.02081819623708725,0.3088443875312805,-0.11538677662611008
1779786622160579300,1.193579345703125,-0.008183893747627735,0.3016144335269928,-0.11491460353136063
1779786622170660000,1.20366015625,0.024568991735577583,0.30026954412460327,-0.11067431420087814
1779786622180742100,1.2137421875,0.06354328989982605,0.3032267093658447,-0.05960953235626221
1779786622190824000,1.223823974609375,0.07273918390274048,0.09094135463237762,0.24802365899085999
1779786622200905000,1.233905029296875,0.007614510133862495,-0.024517860263586044,0.39017653465270996
1779786622210987000,1.243987060546875,-0.056422796100378036,-0.13040274381637573,0.286767840385437
1779786622221069000,1.254069091796875,-0.016143549233675003,-0.14013579487800598,0.06625998020172119
1779786622231150000,1.264150146484375,0.053529269993305206,-0.0613885261118412,-0.08691918849945068
1779786622241232100,1.274232177734375,0.07943063974380493,-0.019583288580179214,-0.10314556211233139
1779786622251314200,1.284314208984375,0.06724215298891068,-0.05949874594807625,0.0080898841843009
1779786622261395200,1.294395263671875,0.021866949275135994,-0.19884492456912994,0.14803127944469452
1779786622271477200,1.304477294921875,-0.024954086169600487,-0.3629837930202484,0.22265438735485077
1779786622281558000,1.31455810546875,-0.05034838989377022,-0.4633934795856476,0.18305903673171997
1779786622291640000,1.32464013671875,-0.03767148032784462,-0.5200852751731873,0.05763959512114525
1779786622301722000,1.33472216796875,-0.02178652212023735,-0.5380967259407043,-0.09778621792793274
1779786622311803100,1.34480322265625,-0.003117496380582452,-0.4905446767807007,-0.24207814037799835
1779786622321885200,1.35488525390625,0.012106464244425297,-0.4876287877559662,-0.3439752161502838
1779786622331967200,1.36496728515625,0.034208837896585464,-0.5281258821487427,-0.38596075773239136
1779786622342048300,1.37504833984375,0.05016916245222092,-0.5549811720848083,-0.365332692861557
1779786622352130000,1.385130126953125,0.0733751505613327,-0.534153938293457,-0.30549919605255127
1779786622362212000,1.395212158203125,0.0982930138707161,-0.4382082521915436,-0.24102991819381714
1779786622372293000,1.405293212890625,0.1258777678012848,-0.3593677580356598,-0.17888745665550232
1779786622382375200,1.415375244140625,0.1620866358280182,-0.3771640658378601,-0.11520062386989594
1779786622392457200,1.425457275390625,0.2148585021495819,-0.3359394073486328,-0.012569587677717209
1779786622402538000,1.4355380859375,0.27624303102493286,-0.1461915671825409,0.16659989953041077
1779786622412620000,1.4456201171875,0.34673210978507996,0.11120828241109848,0.33350419998168945
1779786622422702000,1.4557021484375,0.5016327500343323,0.211994007229805,0.3396020531654358
1779786622432783000,1.465783203125,0.6279475688934326,0.2684815227985382,0.2851760685443878
1779786622442865200,1.475865234375,0.7945655584335327,0.37179991602897644,0.2393135130405426
1779786622452947200,1.485947265625,0.8680131435394287,0.5476391315460205,0.20548178255558014
1779786622463028200,1.4960283203125,0.9307090044021606,0.7838306427001953,0.19385814666748047
1779786622473110300,1.5061103515625,1.1543653011322021,1.0050112009048462,0.26373204588890076
1779786622483192300,1.5161923828125,1.4231562614440918,1.1298333406448364,0.31141459941864014
1779786622493273000,1.526273193359375,1.6442641019821167,1.0573912858963013,0.27078408002853394
1779786622503355100,1.536355224609375,1.7665351629257202,0.7068434357643127,0.18971000611782074
1779786622513436200,1.546436279296875,1.814738154411316,0.23834945261478424,0.16036756336688995
1779786622523518200,1.556518310546875,1.8159676790237427,-0.041678205132484436,0.2159871608018875
1779786622533600000,1.56660009765625,1.834999442100525,0.08711119741201401,0.3131307363510132
1779786622543681000,1.576680908203125,1.8788076639175415,0.2519936263561249,0.32737573981285095
1779786622553763000,1.58676318359375,1.9606908559799194,0.28454092144966125,0.17139571905136108
1779786622563845000,1.59684521484375,2.1490912437438965,0.49317666888237,-0.128512442111969
1779786622573926100,1.606926025390625,2.3952670097351074,1.0038572549819946,-0.5915746092796326
1779786622584008200,1.61700830078125,2.5574264526367188,1.6707124710083008,-1.0950337648391724
1779786622594090200,1.62709033203125,2.480379343032837,2.302616834640503,-1.5683557987213135
1779786622604171000,1.6371708984375,2.3413026332855225,2.388223886489868,-1.8776417970657349
1779786622614253000,1.647253173828125,2.240459680557251,2.1649253368377686,-1.9566081762313843
1779786622624335000,1.657335205078125,2.0827796459198,2.080981969833374,-1.8423361778259277
1779786622634416000,1.667416015625,1.9746087789535522,1.9918344020843506,-1.7588509321212769
1779786622644498200,1.677498291015625,1.9263653755187988,1.9217863082885742,-1.7537962198257446
1779786622654580200,1.687580322265625,1.9306029081344604,1.814286470413208,-1.6845064163208008
1779786622664661200,1.6976611328125,2.008281946182251,1.5448291301727295,-1.6803470849990845
1779786622674743300,1.707743408203125,2.090341567993164,1.3636783361434937,-1.8077151775360107
1779786622684825000,1.7178251953125,2.100224256515503,1.591478943824768,-2.012953996658325
1779786622694906000,1.727906005859375,1.9860938787460327,2.147749423980713,-2.15810227394104
1779786622704988200,1.73798828125,1.6801832914352417,2.820530414581299,-2.0293290615081787
1779786622715070200,1.7480703125,1.1265621185302734,3.283590316772461,-1.6557931900024414
1779786622725151000,1.75815087890625,1.0919700860977173,2.984448194503784,-1.3152244091033936
1779786622735233000,1.76823291015625,1.468570351600647,2.498974084854126,-0.9562018513679504
1779786622745314000,1.77831396484375,1.733603835105896,1.992352843284607,-0.7243531942367554
1779786622755396000,1.78839599609375,1.835295557975769,1.5871435403823853,-0.651163637638092
1779786622765478100,1.79847802734375,1.8541542291641235,1.410073161125183,-0.7628366351127625
1779786622775559200,1.80855908203125,1.991512417793274,1.1377135515213013,-0.9745994806289673
1779786622785641200,1.81864111328125,2.091702938079834,0.7264573574066162,-1.1587892770767212
1779786622795723300,1.82872314453125,2.1626734733581543,0.18762315809726715,-1.2971850633621216
1779786622805804300,1.83880419921875,2.3192994594573975,-0.4526066184043884,-1.3727295398712158
1779786622815886000,1.848885986328125,2.5651121139526367,-1.0422080755233765,-1.2510377168655396
1779786622825968000,1.858968017578125,2.4350030422210693,-1.498611330986023,-0.9883211851119995
1779786622836049200,1.869049072265625,2.192861795425415,-1.8622068166732788,-0.8168026804924011
1779786622846130400,1.87913037109375,2.3982532024383545,-1.8208391666412354,-0.8624420762062073
1779786622856212500,1.88921240234375,2.270641803741455,-1.482377529144287,-0.9834893941879272
1779786622866293500,1.89929345703125,1.9293022155761719,-1.0541859865188599,-1.1130551099777222
1779786622876375600,1.90937548828125,1.5715638399124146,-0.6337449550628662,-1.2289305925369263
1779786622886457300,1.919457275390625,1.3079007863998413,-0.5985984206199646,-1.299351453781128
1779786622896538600,1.92953857421875,1.154678463935852,-0.6925891041755676,-1.2733843326568604
1779786622906620400,1.939620361328125,1.1127943992614746,-1.0183278322219849,-1.1826096773147583
1779786622916702200,1.9497021484375,1.0727630853652954,-1.3419426679611206,-1.0021840333938599
1779786622926783200,1.959783203125,0.9193429350852966,-1.5080780982971191,-0.7437915802001953
1779786622936865300,1.969865234375,0.8344903588294983,-1.414930820465088,-0.37094902992248535
1779786622946947300,1.979947265625,0.7199371457099915,-1.356794834136963,-0.13341504335403442
1779786622957028400,1.9900283203125,0.6364270448684692,-1.3684829473495483,-0.12245906889438629
1779786622967110400,2.0001103515625,0.747097909450531,-1.56809663772583,-0.3661462962627411
1779786622977192400,2.0101923828125,1.1497957706451416,-1.7501519918441772,-0.7520383596420288
1779786622987273500,2.0202734375,1.441288709640503,-1.6909384727478027,-0.958096981048584
1779786622997355500,2.03035546875,1.4707599878311157,-1.582297682762146,-0.9421403408050537
1779786623007437600,2.0404375,1.3968753814697266,-1.6689279079437256,-0.6659718751907349
1779786623017518300,2.050518310546875,1.3919610977172852,-1.768182396888733,-0.2344127744436264
1779786623027600400,2.060600341796875,1.2858836650848389,-2.019622564315796,0.17571376264095306
1779786623037682200,2.07068212890625,1.2031410932540894,-2.7093515396118164,0.560606062412262
1779786623047763500,2.080763427734375,1.2205594778060913,-3.56490421295166,0.8014397025108337
1779786623057845200,2.09084521484375,1.2686396837234497,-4.130345344543457,0.8593147397041321
1779786623067927300,2.10092724609375,1.2795826196670532,-4.3097991943359375,0.7388330698013306
1779786623078008300,2.11100830078125,1.4026286602020264,-4.377101898193359,0.5561753511428833
1779786623088090400,2.12109033203125,1.694507360458374,-4.365809917449951,0.4588187038898468
1779786623098172400,2.13117236328125,2.06644344329834,-4.173465728759766,0.47103115916252136
1779786623108253400,2.14125341796875,2.144185781478882,-3.919139862060547,0.3887791633605957
1779786623118335500,2.15133544921875,2.052171468734741,-3.847177505493164,0.2988221049308777
1779786623128416300,2.161416259765625,1.921130895614624,-3.7466423511505127,0.2127639353275299
1779786623138498300,2.171498291015625,1.8724101781845093,-3.5758793354034424,0.16277453303337097
1779786623148580400,2.181580322265625,1.8026889562606812,-3.1214373111724854,0.17458432912826538
1779786623158661400,2.191661376953125,1.6857348680496216,-2.4191973209381104,0.28350815176963806
1779786623168743400,2.201743408203125,1.5957038402557373,-1.6786402463912964,0.38502436876296997
1779786623178825500,2.211825439453125,1.5445457696914673,-1.418502688407898,0.6087919473648071
1779786623188906500,2.221906494140625,1.3284398317337036,-1.5039414167404175,0.7260813117027283
1779786623198988500,2.231988525390625,1.0429232120513916,-1.828102946281433,0.6463484168052673
1779786623209070300,2.2420703125,0.7259715795516968,-2.421992778778076,0.32984235882759094
1779786623219151600,2.252151611328125,0.4969581067562103,-2.913133144378662,0.03658437728881836
1779786623229233400,2.2622333984375,0.4144973158836365,-2.7280282974243164,-0.3165411949157715
1779786623239315200,2.272315185546875,0.3435802757740021,-2.33188533782959,-0.5005504488945007
1779786623249397200,2.282397216796875,0.19704090058803558,-2.0907070636749268,-0.5206349492073059
1779786623259478300,2.292478271484375,0.07333572953939438,-2.005772590637207,-0.46219587326049805
1779786623269560300,2.302560302734375,0.03425570949912071,-1.8072106838226318,-0.43789052963256836
1779786623279642400,2.312642333984375,0.07968364655971527,-1.498918890953064,-0.5080959796905518
1779786623289723400,2.322723388671875,0.16602012515068054,-1.2681370973587036,-0.5915660858154297
1779786623299805400,2.332805419921875,0.24971209466457367,-1.3607197999954224,-0.6594511270523071
1779786623309887500,2.342887451171875,0.2606355845928192,-1.800924301147461,-0.6736846566200256
1779786623319968500,2.352968505859375,0.18593284487724304,-2.2160115242004395,-0.5890161395072937
1779786623330050600,2.363050537109375,0.14832980930805206,-2.4321467876434326,-0.37467825412750244
1779786623340132400,2.37313232421875,0.14343039691448212,-2.381417989730835,-0.13283661007881165
1779786623350213400,2.38321337890625,0.13016413152217865,-2.054654121398926,0.0330977663397789
1779786623360295200,2.393295166015625,0.11785606294870377,-1.6331536769866943,0.09520241618156433
1779786623370377200,2.403377197265625,0.10561670362949371,-1.3479770421981812,0.08605578541755676
1779786623380458200,2.413458251953125,0.07253838330507278,-1.1181210279464722,0.06397924572229385
1779786623390540300,2.423540283203125,0.050750263035297394,-0.9441073536872864,0.07306621968746185
1779786623400622300,2.433622314453125,-0.00669438811019063,-0.829896092414856,0.10605106502771378
1779786623410703400,2.443703369140625,-0.09885840117931366,-0.8689827919006348,0.07561939209699631
1779786623420785400,2.453785400390625,-0.13946415483951569,-1.0131868124008179,0.055636364966630936
1779786623430867500,2.463867431640625,-0.2177022248506546,-0.9742322564125061,0.008385495282709599
1779786623440948500,2.473948486328125,-0.2423447221517563,-0.879280149936676,0.03819878399372101
1779786623451030500,2.484030517578125,-0.2778316140174866,-0.755702018737793,0.0751541405916214
1779786623461112600,2.494112548828125,-0.3824962377548218,-0.6202139854431152,0.1014709621667862
1779786623471193300,2.504193359375,-0.45712149143218994,-0.5316678881645203,0.12615154683589935
1779786623481275400,2.514275390625,-0.4706660509109497,-0.5346589088439941,0.12546658515930176
1779786623491357400,2.524357421875,-0.4184377193450928,-0.5467672348022461,0.06792286038398743
1779786623501438500,2.5344384765625,-0.3211362063884735,-0.5525502562522888,-0.030287066474556923
1779786623511520500,2.5445205078125,-0.21770542860031128,-0.4509485363960266,-0.11771012097597122
1779786623521602300,2.554602294921875,-0.1636113077402115,-0.21323344111442566,-0.17847120761871338
1779786623531683300,2.564683349609375,-0.15811000764369965,0.01889592595398426,-0.19513674080371857
1779786623541765400,2.574765380859375,-0.16791044175624847,0.08656658232212067,-0.18489235639572144
1779786623551847400,2.584847412109375,-0.17505383491516113,0.02906893566250801,-0.14366528391838074
1779786623561928200,2.59492822265625,-0.1557786762714386,-0.08197396248579025,-0.07264810800552368
1779786623572010200,2.60501025390625,-0.13260890543460846,-0.1632179468870163,-0.005042695440351963
1779786623582092300,2.61509228515625,-0.1083483099937439,-0.18249844014644623,0.04556775093078613
1779786623592173300,2.62517333984375,-0.10170026123523712,-0.1766703724861145,0.06391879171133041
1779786623602255400,2.63525537109375,-0.11150176078081131,-0.13199079036712646,0.06566369533538818
1779786623612337400,2.64533740234375,-0.10518527776002884,-0.02111114375293255,0.0698174312710762
1779786623622418400,2.65541845703125,-0.08250446617603302,0.10340096056461334,0.08588401228189468
1779786623632500500,2.66550048828125,-0.06175391003489494,0.20341703295707703,0.09881765395402908
1779786623642582500,2.67558251953125,-0.04742983356118202,0.28205591440200806,0.08555910736322403
1779786623652664300,2.685664306640625,-0.031092138960957527,0.3582391142845154,0.04874942824244499
1779786623662745600,2.69574560546875,-0.013615943491458893,0.3826187551021576,-0.020268253982067108
1779786623672827400,2.705827392578125,-0.03352547064423561,0.3230672776699066,-0.08360568434000015
1779786623682909400,2.715909423828125,-0.07724712044000626,0.14948110282421112,-0.13579431176185608
1779786623692990200,2.725990234375,-0.09989304095506668,-0.09708952903747559,-0.15270352363586426
1779786623703072300,2.736072265625,-0.0909525454044342,-0.29003873467445374,-0.16328932344913483
1779786623713154300,2.746154296875,-0.07486039400100708,-0.3480061888694763,-0.14162397384643555
1779786623723235300,2.7562353515625,-0.08337212353944778,-0.257027268409729,-0.09190009534358978
1779786623733317400,2.7663173828125,-0.10341720283031464,-0.09302154928445816,-0.05290396139025688
1779786623743399400,2.7763994140625,-0.12103774398565292,0.0667601227760315,-0.04772517830133438
1779786623753480400,2.78648046875,-0.10700447857379913,0.16574209928512573,-0.06450815498828888
1779786623763562500,2.7965625,-0.09136532992124557,0.16930221021175385,-0.10497462004423141
1779786623773644500,2.80664453125,-0.08715540915727615,0.02702256292104721,-0.13955390453338623
1779786623783725600,2.8167255859375,-0.06867493689060211,-0.13065654039382935,-0.15451927483081818
1779786623793807400,2.826807373046875,-0.05294790491461754,-0.21849346160888672,-0.15642821788787842
1779786623803889200,2.83688916015625,-0.031803201884031296,-0.2955906391143799,-0.1518382579088211
1779786623813970400,2.846970458984375,-0.01417307648807764,-0.3326498568058014,-0.13388749957084656
1779786623824052200,2.85705224609375,-0.015794942155480385,-0.2847377359867096,-0.11221415549516678
1779786623834134300,2.86713427734375,0.001585912425071001,-0.181134894490242,-0.10915418714284897
1779786623844216300,2.87721630859375,0.019098060205578804,-0.07725883275270462,-0.1400681585073471
1779786623854297000,2.887297119140625,0.03315209597349167,-0.023683225736021996,-0.1736849695444107
1779786623864379100,2.897379150390625,0.03187697380781174,-0.048411473631858826,-0.19747471809387207
1779786623874461200,2.907461181640625,0.025349298492074013,-0.1277342587709427,-0.22215130925178528
1779786623884542200,2.917542236328125,0.024698687717318535,-0.12724849581718445,-0.21307899057865143
1779786623894624300,2.927624267578125,0.03985953330993652,-0.049853574484586716,-0.18236501514911652
1779786623904706300,2.937706298828125,0.03941158950328827,0.0486074835062027,-0.15157701075077057
1779786623914787300,2.947787353515625,0.019584620371460915,0.11067431420087814,-0.12729297578334808
1779786623924869400,2.957869384765625,-0.0030831415206193924,0.09663732349872589,-0.10889586061239243
1779786623934951400,2.967951416015625,-0.03843367472290993,0.014483069069683552,-0.0899815559387207
1779786623945033200,2.978033203125,-0.06292623281478882,-0.10055377334356308,-0.07050479203462601
1779786623955114200,2.9881142578125,-0.07610808312892914,-0.17819690704345703,-0.03801396116614342
1779786623965196300,2.9981962890625,-0.059122975915670395,-0.17669488489627838,-0.003157177474349737
1779786623975278300,3.0082783203125,-0.03340935707092285,-0.10810889303684235,0.027594076469540596
1779786623985359000,3.018359130859375,-0.018218418583273888,-0.008833439089357853,0.04212295264005661
1779786623995441200,3.028441162109375,-0.0036607813090085983,0.05708912014961243,0.04162254557013512
1779786624005523200,3.038523193359375,-0.007782822009176016,0.08636285364627838,0.050395794212818146
1779786624015604200,3.048604248046875,-0.00711703160777688,0.11144956201314926,0.05243098363280296
1779786624025686300,3.058686279296875,0.0023523701820522547,0.09696809202432632,0.05579109489917755
1779786624035768300,3.068768310546875,0.01678457297384739,0.03382693976163864,0.055395882576704025
1779786624045849300,3.078849365234375,0.0404914990067482,-0.000046339002437889576,0.052863214164972305
1779786624055931400,3.088931396484375,0.07165288180112839,0.038785479962825775,0.03784644976258278
1779786624066013400,3.099013427734375,0.09473955631256104,0.09785625338554382,0.024644626304507256
1779786624076095200,3.10909521484375,0.10052980482578278,0.1540212631225586,-0.0051710596308112144
1779786624086176300,3.11917626953125,0.08572981506586075,0.18078921735286713,-0.026153840124607086
1779786624096258000,3.129258056640625,0.06970531493425369,0.1729840338230133,-0.03844992071390152
1779786624106340000,3.139340087890625,0.04975690320134163,0.13340438902378082,-0.042566101998090744
1779786624116421000,3.149421142578125,0.03753405809402466,0.07353094220161438,-0.04791612550616264
1779786624126503200,3.159503173828125,0.025308286771178246,-0.017303623259067535,-0.05215534567832947
1779786624136585200,3.169585205078125,0.0280393585562706,-0.10023365914821625,-0.06801819801330566
1779786624146666200,3.179666259765625,0.02660524472594261,-0.14794525504112244,-0.07238658517599106
1779786624156748300,3.189748291015625,0.021881597116589546,-0.15757711231708527,-0.06447353214025497
1779786624166830300,3.199830322265625,0.004894091282039881,-0.11688986420631409,-0.04866580665111542
1779786624176912400,3.209912353515625,-0.0276167131960392,-0.038483478128910065,-0.0334991030395031
1779786624186993400,3.219993408203125,-0.05523955449461937,0.023661121726036072,-0.01601039245724678
1779786624197075500,3.230075439453125,-0.07443002611398697,0.029573071748018265,0.0035292210523039103
1779786624207157200,3.2401572265625,-0.07763674110174179,-0.023389479145407677,0.029414881020784378
1779786624217238300,3.25023828125,-0.07935367524623871,-0.10035669803619385,0.05600068345665932
1779786624227320300,3.2603203125,-0.06553400307893753,-0.13923326134681702,0.07814700156450272
1779786624237402000,3.270402099609375,-0.04748868942260742,-0.11663340777158737,0.07359432429075241
1779786624247484200,3.280484130859375,-0.03867682069540024,-0.06751885265111923,0.06447965651750565
1779786624257565200,3.290565185546875,-0.0342320054769516,-0.04175037518143654,0.05985933914780617
1779786624267647200,3.300647216796875,-0.03061729669570923,-0.052567604929208755,0.06450548768043518
1779786624277729300,3.310729248046875,-0.02930036373436451,-0.0918540209531784,0.08046501129865646
1779786624287810300,3.320810302734375,-0.02949291095137596,-0.12971991300582886,0.09547192603349686
1779786624297892400,3.330892333984375,-0.01920245587825775,-0.1443324089050293,0.08330793678760529
1779786624307974400,3.340974365234375,-0.010773018933832645,-0.13886280357837677,0.052917543798685074
1779786624318056400,3.351056396484375,0.0027300063520669937,-0.11200989037752151,0.019470637664198875
1779786624328137200,3.36113720703125,0.012060657143592834,-0.04593154042959213,-0.012954680249094963
1779786624338219300,3.37121923828125,0.007025685161352158,0.025316542014479637,-0.025247033685445786
1779786624348301000,3.381301025390625,0.000008788431841821875,0.039382025599479675,-0.03638517111539841
1779786624358382300,3.39138232421875,-0.007595069240778685,-0.030293989926576614,-0.053040847182273865
1779786624368464100,3.401464111328125,-0.011669971980154514,-0.08861828595399857,-0.056001216173172
1779786624378546200,3.411546142578125,-0.020255470648407936,-0.09523171186447144,-0.05891711264848709
1779786624388628200,3.421628173828125,-0.02798955701291561,-0.07090533524751663,-0.06941742449998856
1779786624398709200,3.431709228515625,-0.043952543288469315,-0.031189344823360443,-0.08274281769990921
1779786624408791300,3.441791259765625,-0.06235205754637718,-0.01732705906033516,-0.07158177345991135
1779786624418873300,3.451873291015625,-0.08431275188922882,-0.014809572137892246,-0.04411925747990608
1779786624428954400,3.461954345703125,-0.11646082997322083,0.01071016862988472,-0.026569025591015816
1779786624439036400,3.472036376953125,-0.126888707280159,0.028255872428417206,-0.020173178985714912
1779786624449118500,3.482118408203125,-0.1403627097606659,-0.00498144282028079,-0.012566391378641129
1779786624459200300,3.4922001953125,-0.14225754141807556,-0.03323305398225784,0.05041390657424927
1779786624469281300,3.50228125,-0.12528228759765625,-0.008052600547671318,0.12527883052825928
1779786624479363300,3.51236328125,-0.09985335916280746,0.034564901143312454,0.16340729594230652
1779786624489445000,3.522445068359375,-0.07704365253448486,0.07220309227705002,0.1557949185371399
1779786624499526100,3.532526123046875,-0.06419096887111664,0.0934644341468811,0.13393063843250275
1779786624509608200,3.542608154296875,-0.05221233889460564,0.10911130905151367,0.13267602026462555
1779786624519690200,3.552690185546875,-0.05733839049935341,0.10651791840791702,0.13883352279663086
1779786624529772300,3.562772216796875,-0.04589691758155823,0.08593381941318512,0.1180155873298645
1779786624539853300,3.572853271484375,-0.02263607084751129,0.055201202630996704,0.07037855684757233
1779786624549935400,3.582935302734375,0.0001685781026026234,0.013136574998497963,0.1012033149600029
1779786624560017400,3.593017333984375,-0.016566991806030273,-0.022037923336029053,0.22209325432777405
1779786624570099500,3.603099365234375,-0.024160996079444885,-0.014916631393134594,0.3296082615852356
1779786624580180200,3.61318017578125,-0.014767494052648544,-0.004406732507050037,0.3356267511844635
1779786624590262300,3.62326220703125,-0.004344680812209845,0.05337667092680931,0.27127066254615784
1779786624600344000,3.633343994140625,0.014593856409192085,0.12519334256649017,0.17336885631084442
1779786624610425300,3.64342529296875,0.036426983773708344,0.16129328310489655,0.06260905414819717
1779786624620507100,3.653507080078125,0.047694552689790726,0.13880182802677155,-0.01907196082174778
1779786624630589200,3.663589111328125,0.039454199373722076,0.07263559103012085,-0.07530167698860168
1779786624640671200,3.673671142578125,0.022706644609570503,-0.0022626216523349285,-0.11372949182987213
1779786624650752300,3.683752197265625,0.011185009963810444,-0.05640042573213577,-0.1263667196035385
1779786624660834300,3.693834228515625,0.008778311312198639,-0.10314209759235382,-0.11842384934425354
1779786624670916400,3.703916259765625,0.008743956685066223,-0.14808852970600128,-0.11200989037752151
1779786624680997400,3.713997314453125,0.011845740489661694,-0.15212082862854004,-0.11107698827981949
1779786624691079400,3.724079345703125,0.009157812222838402,-0.10311706364154816,-0.09827383607625961
1779786624701161200,3.7341611328125,0.01073999609798193,-0.051352668553590775,-0.07559755444526672
1779786624711243300,3.7442431640625,0.005000883713364601,-0.007515440694987774,-0.05156252533197403
1779786624721324300,3.75432421875,-0.011795938946306705,0.01738458313047886,-0.042927227914333344
1779786624731406300,3.76440625,-0.019057581201195717,-0.006632602773606777,-0.03454812243580818
1779786624741488000,3.774488037109375,-0.026283802464604378,-0.08838232606649399,-0.007607585750520229
1779786624751570200,3.784570068359375,-0.02798156626522541,-0.14672020077705383,0.022535668686032295
1779786624761651200,3.794651123046875,-0.03304530307650566,-0.16538363695144653,0.03569461405277252
1779786624771733200,3.804733154296875,-0.03441176936030388,-0.15099431574344635,0.042759448289871216
1779786624781815300,3.814815185546875,-0.04182574525475502,-0.12421782314777374,0.05252020061016083
1779786624791897300,3.8248974609375,-0.04644925892353058,-0.09779713302850723,0.049669019877910614
1779786624801978400,3.834978271484375,-0.029570940881967545,-0.06441334635019302,0.04201855510473251
1779786624812060400,3.845060302734375,-0.006536195985972881,-0.03911331295967102,0.047313984483480453
1779786624822142500,3.855142578125,0.01278983149677515,-0.026154639199376106,0.052617937326431274
1779786624832223200,3.86522314453125,0.032109200954437256,-0.018517225980758667,0.03671407327055931
1779786624842305300,3.87530517578125,0.04102706164121628,-0.04790227860212326,0.0041031320579349995
1779786624852387600,3.8853876953125,0.046594664454460144,-0.1217019334435463,-0.021507157012820244
1779786624862469600,3.8954697265625,0.052255745977163315,-0.19711600244045258,-0.04712330177426338
1779786624872550700,3.905550537109375,0.06439949572086334,-0.22657348215579987,-0.06859397143125534
1779786624882632700,3.9156328125,0.07541459798812866,-0.19397293031215668,-0.1079815924167633
1779786624892714800,3.92571484375,0.08293163776397705,-0.11146420985460281,-0.14776283502578735
1779786624902796800,3.935796875,0.07400871068239212,-0.028736039996147156,-0.17156296968460083
1779786624912877800,3.9458779296875,0.054667238146066666,-0.01257810927927494,-0.1770285665988922
1779786624922960000,3.9559599609375,0.03416009992361069,-0.031498003751039505,-0.15047632157802582
1779786624933042000,3.9660419921875,0.014285728335380554,-0.04236210510134697,-0.10423719137907028
1779786624943123700,3.976123779296875,-0.0030719563364982605,-0.043830037117004395,-0.04391526058316231
1779786624953205000,3.986205078125,-0.01846476085484028,-0.04914703965187073,0.020387297496199608
1779786624963286800,3.996286865234375,-0.019846675917506218,-0.06585224717855453,0.07872490584850311
1779786624973368600,4.00636865234375,-0.009918943047523499,-0.0853164941072464,0.1161993071436882
1779786624983450600,4.01645068359375,-0.007240602280944586,-0.10304036736488342,0.12929168343544006
1779786624993531600,4.02653173828125,0.006381732877343893,-0.09702694416046143,0.12390383332967758
1779786625003613700,4.03661376953125,0.02382144331932068,-0.05810324847698212,0.10314982384443283
1779786625013695700,4.04669580078125,0.03910212963819504,0.0041609229519963264,0.08411461114883423
1779786625023776800,4.05677685546875,0.054002780467271805,0.027231087908148766,0.06455822288990021
1779786625033858800,4.06685888671875,0.06760621070861816,0.004746285732835531,0.06707783788442612
1779786625043940900,4.07694091796875,0.07825245708227158,-0.01817926950752735,0.07240735739469528
1779786625054023000,4.08702294921875,0.09566527605056763,0.0000250337143370416,0.07895713299512863
1779786625064104000,4.09710400390625,0.11439555138349533,0.020386232063174248,0.0708635225892067
1779786625074185700,4.107185791015625,0.12355443090200424,0.0020032296888530254,0.03319337218999863
1779786625084267800,4.117267822265625,0.12533128261566162,-0.06431480497121811,-0.021564947441220284
1779786625094349800,4.127349853515625,0.12270648032426834,-0.12684449553489685,-0.05615301802754402
1779786625104430600,4.1374306640625,0.1311899721622467,-0.12179514765739441,-0.07977312803268433
1779786625114512600,4.1475126953125,0.14220242202281952,-0.0651979148387909,-0.10865164548158646
1779786625124594700,4.1575947265625,0.14214329421520233,0.005432316102087498,-0.13978266716003418
1779786625134676700,4.1676767578125,0.12973642349243164,0.0555918887257576,-0.18825459480285645
1779786625144757800,4.1777578125,0.10492508113384247,0.08640040457248688,-0.22049349546432495
1779786625154839800,4.18783984375,0.07529475539922714,0.06437099725008011,-0.22448530793190002
1779786625164921900,4.197921875,0.05718579143285751,0.031978972256183624,-0.22062665224075317
1779786625175003600,4.208003662109375,0.03874659538269043,0.026627615094184875,-0.20706875622272491
1779786625185085000,4.2180849609375,0.02419748157262802,0.009618804790079594,-0.18291255831718445
1779786625195166700,4.228166748046875,0.01085770782083273,-0.05516152083873749,-0.1496821641921997
1779786625205248800,4.238248779296875,-0.008534366264939308,-0.0792870968580246,-0.10987377166748047
1779786625215330800,4.248330810546875,-0.035169705748558044,-0.056365005671978,-0.04439596086740494
1779786625225411600,4.25841162109375,-0.0612654872238636,-0.012116051279008389,0.053467750549316406
1779786625235493600,4.26849365234375,-0.06835988163948059,0.018192851915955544,0.08440037071704865
1779786625245575700,4.27857568359375,-0.08094331622123718,0.04656190797686577,0.10640367120504379
1779786625255657700,4.28865771484375,-0.08783584833145142,0.02105974592268467,0.145156130194664
1779786625265738800,4.29873876953125,-0.09458722174167633,-0.005646700505167246,0.17274487018585205
1779786625275820800,4.30882080078125,-0.09466499090194702,-0.023688817396759987,0.1814182549715042
1779786625285902800,4.31890283203125,-0.08268821984529495,-0.03177390992641449,0.15597175061702728
1779786625295984600,4.328984619140625,-0.06893592327833176,-0.012141351588070393,0.13182035088539124
1779786625306066700,4.339066650390625,-0.05283285304903984,0.027306722477078438,0.11274092644453049
1779786625316147700,4.349147705078125,-0.035412587225437164,0.022065088152885437,0.10598395764827728
1779786625326229800,4.359229736328125,-0.006770021747797728,0.008812665939331055,0.11157579720020294
1779786625336311800,4.369311767578125,0.02702469378709793,0.004458664450794458,0.097907654941082
1779786625346393900,4.379393798828125,0.048530783504247665,0.01998302899301052,0.07828814536333084
1779786625356475000,4.389474853515625,0.0646602213382721,0.02979065291583538,0.053694918751716614
1779786625366556700,4.399556640625,0.0789739117026329,0.05886917561292648,0.03365010395646095
1779786625376638700,4.409638671875,0.08989579975605011,0.10797680169343948,0.0005193164106458426
1779786625386720800,4.419720703125,0.0946442186832428,0.1364864706993103,-0.01786874607205391
1779786625396801800,4.4298017578125,0.09384740144014359,0.12486869841814041,-0.01889965496957302
1779786625406883800,4.4398837890625,0.08689894527196884,0.07901039719581604,-0.018824022263288498
1779786625416965600,4.449965576171875,0.07699225097894669,0.008222776465117931,-0.023190541192889214
1779786625427047700,4.460047607421875,0.07202812284231186,-0.026688601821660995,-0.03274303302168846
1779786625437128700,4.470128662109375,0.06191902607679367,-0.033235449343919754,-0.029856964945793152
1779786625447210800,4.480210693359375,0.05928729102015495,-0.02213939093053341,-0.022037656977772713
1779786625457292800,4.490292724609375,0.058275822550058365,0.014877483248710632,-0.006153766065835953
1779786625467374800,4.500374755859375,0.0469382144510746,0.05026263743638992,0.0160111915320158
1779786625477456000,4.510455810546875,0.04328302666544914,0.0695633664727211,0.03752953186631203
1779786625487538000,4.520537841796875,0.028383171185851097,0.06462480127811432,0.07041504234075546
1779786625497620000,4.530619873046875,0.009345831349492073,0.01546710729598999,0.11239658296108246
1779786625507701800,4.54070166015625,-0.005967345088720322,-0.030908914282917976,0.14829599857330322
1779786625517782800,4.55078271484375,-0.020182499662041664,-0.04080149158835411,0.17382772266864777
1779786625527864600,4.560864501953125,-0.03080212138593197,-0.009169263765215874,0.18475785851478577
1779786625537946600,4.570946533203125,-0.030296120792627335,0.028384502977132797,0.19188262522220612
1779786625548028700,4.581028564453125,-0.022471753880381584,0.05959701910614967,0.18734432756900787
1779786625558110700,4.59111083984375,-0.012925385497510433,0.08147329092025757,0.1679527908563614
1779786625568191700,4.601191650390625,-0.006451773922890425,0.07011357694864273,0.1459212601184845
1779786625578273800,4.611273681640625,0.006487193983048201,0.06665146350860596,0.11934903264045715
1779786625588355800,4.62135595703125,0.007710650097578764,0.07979416102170944,0.0748358890414238
1779786625598438000,4.63143798828125,0.01290354784578085,0.09761470556259155,0.03027215227484703
1779786625608519000,4.641518798828125,0.01895957626402378,0.11687734723091125,-0.014525679871439934
1779786625618601000,4.65160107421875,0.024029701948165894,0.1303662657737732,-0.0483827106654644
1779786625628682800,4.661682861328125,0.02425527200102806,0.14362694323062897,-0.06390175223350525
1779786625638764800,4.671764892578125,0.016808008775115013,0.12419199198484421,-0.05654503405094147
1779786625648846800,4.681846923828125,0.013761351816356182,0.09088463336229324,-0.038000114262104034
1779786625658927600,4.691927734375,0.0027949875220656395,0.03796575963497162,-0.034390728920698166
1779786625669009700,4.702009765625,-0.01019937451928854,0.0025366609916090965,-0.025486717000603676
1779786625679091700,4.712091796875,-0.022668294608592987,-0.013141368515789509,-0.020849887281656265
1779786625689173800,4.722173828125,-0.03302932158112526,-0.02610776759684086,-0.00481206551194191
1779786625699254800,4.7322548828125,-0.029020465910434723,-0.014207432046532631,0.012835637666285038
1779786625709336800,4.7423369140625,-0.022589199244976044,0.028652150183916092,0.04428597167134285
1779786625719419000,4.7524189453125,-0.020830713212490082,0.07284757494926453,0.09036584943532944
1779786625729500700,4.762500732421875,-0.01913587749004364,0.09030646085739136,0.14144767820835114
1779786625739581700,4.772581787109375,-0.016575248911976814,0.08284002542495728,0.18263399600982666
1779786625749663700,4.782663818359375,-0.01925358921289444,0.04797897860407829,0.20604504644870758
1779786625759745800,4.792745849609375,-0.020897824317216873,0.005877329967916012,0.20322050154209137
1779786625769827800,4.802827880859375,-0.01305295154452324,-0.04393443465232849,0.18711848556995392
1779786625779910000,4.812909912109375,0.0034706315491348505,-0.09218212217092514,0.1647615134716034
1779786625789990700,4.82299072265625,0.021679462864995003,-0.10275301337242126,0.14187218248844147
1779786625800072700,4.83307275390625,0.0536363311111927,-0.08436068892478943,0.10913500934839249
1779786625810154800,4.84315478515625,0.0774306058883667,-0.0396621897816658,0.07174236327409744
1779786625820236800,4.85323681640625,0.08873652666807175,0.004858138505369425,0.03503148630261421
1779786625830317800,4.86331787109375,0.10476715862751007,0.006027532275766134,0.012597017921507359
1779786625840399600,4.873399658203125,0.10950492322444916,-0.008699482306838036,-0.017430655658245087
1779786625850482000,4.88348193359375,0.11485414952039719,-0.009471265599131584,-0.04252322390675545
1779786625860564000,4.89356396484375,0.1185372993350029,-0.002880208659917116,-0.06137600913643837
1779786625870646000,4.90364599609375,0.12036608904600143,-0.018804579973220825,-0.06102553755044937
1779786625880727000,4.91372705078125,0.11677215248346329,-0.04793929681181908,-0.05270875245332718
1779786625890809000,4.92380908203125,0.11417078226804733,-0.08243175595998764,-0.048103611916303635
1779786625900891100,4.93389111328125,0.10218682140111923,-0.09025745838880539,-0.05264376848936081
1779786625910973200,4.94397314453125,0.07752248644828796,-0.0867261067032814,-0.06507141143083572
1779786625921054200,4.95405419921875,0.05197931081056595,-0.07759945094585419,-0.07846764475107193
1779786625931136000,4.964135986328125,0.0198658499866724,-0.06919025629758835,-0.08978048712015152
1779786625941217800,4.9742177734375,-0.001192829804494977,-0.06216989830136299,-0.08873652666807175
1779786625951299800,4.9842998046875,-0.01980379782617092,-0.036858681589365005,-0.07930254191160202
1779786625961382000,4.9943818359375,-0.025232652202248573,-0.017197629436850548,-0.05216014012694359
1779786625971463000,5.004462890625,-0.02876986190676689,-0.012219914235174656,-0.013917679898440838
1779786625981545000,5.014544921875,-0.0328410379588604,-0.01944640278816223,0.027959195896983147
1779786625991627000,5.024626953125,-0.03363519161939621,-0.02881753258407116,0.056591372936964035
1779786626001709000,5.034708984375,-0.041781533509492874,-0.0279778391122818,0.06477154046297073
1779786626011791000,5.044791015625,-0.0572877898812294,-0.015448997728526592,0.07010957598686218
1779786626021872000,5.0548720703125,-0.06901981681585312,0.0013816480059176683,0.07329205423593521
1779786626031954200,5.0649541015625,-0.07727934420108795,-0.0004772384709212929,0.06731272488832474
1779786626042036000,5.075035888671875,-0.07203930616378784,-0.017961690202355385,0.06473718583583832
1779786626052118000,5.085117919921875,-0.05831843242049217,-0.05296601355075836,0.06408683955669403
1779786626062199000,5.095198974609375,-0.04127873107790947,-0.06798757612705231,0.06606157124042511
1779786626072281000,5.105281005859375,-0.021709023043513298,-0.07316263020038605,0.05888994783163071
1779786626082363100,5.115363037109375,-0.009015865623950958,-0.07234184443950653,0.055860601365566254
1779786626092445000,5.12544482421875,0.007208910770714283,-0.07364679127931595,0.043656934052705765
1779786626102527000,5.13552685546875,0.024886706843972206,-0.06975697726011276,0.011812451295554638
1779786626112608000,5.14560791015625,0.04262202978134155,-0.05595461279153824,-0.0209492240101099
1779786626122690000,5.15568994140625,0.06145670264959335,-0.04098125547170639,-0.05330423265695572
1779786626132772000,5.165772216796875,0.0834789127111435,-0.003231213428080082,-0.08467414230108261
1779786626142854000,5.17585400390625,0.10245713591575623,0.03690369054675102,-0.10800635814666748
1779786626152936000,5.18593603515625,0.10369283705949783,0.05739697813987732,-0.10904686152935028
1779786626163017000,5.196016845703125,0.09176667034626007,0.06101435050368309,-0.0948554053902626
1779786626173099000,5.20609912109375,0.06828983873128891,0.03653031587600708,-0.07781223952770233
1779786626183181000,5.21618115234375,0.043951213359832764,0.01062148530036211,-0.06162900850176811
1779786626193263000,5.22626318359375,0.019533753395080566,-0.015213041566312313,-0.047201868146657944
1779786626203345200,5.23634521484375,-0.004255997482687235,-0.040886178612709045,-0.02503025159239769
1779786626213426200,5.24642626953125,-0.022344985976815224,-0.052973467856645584,-0.0049319081008434296
1779786626223508200,5.25650830078125,-0.03596678748726845,-0.056719470769166946,0.019044531509280205
1779786626233590000,5.266590087890625,-0.03900092840194702,-0.022543126717209816,0.041549839079380035
1779786626243671800,5.276671875,-0.039330095052719116,0.02540123090147972,0.059056926518678665
1779786626253753900,5.28675390625,-0.03827495127916336,0.05976080149412155,0.07561273872852325
1779786626263835000,5.2968349609375,-0.03487888723611832,0.062006913125514984,0.088363416492939
1779786626273917000,5.3069169921875,-0.027039339765906334,0.04152267426252365,0.09515554457902908
1779786626283999000,5.3169990234375,-0.02004081942141056,0.025464080274105072,0.09452943503856659
1779786626294081000,5.3270810546875,-0.014432202093303204,0.006997189484536648,0.094031423330307
1779786626304163000,5.3371630859375,-0.0018524948973208666,-0.027651067823171616,0.09845147281885147
1779786626314244000,5.347244140625,0.00917672086507082,-0.06512440741062164,0.09318187832832336
1779786626324326100,5.357326171875,0.02034362033009529,-0.06496807932853699,0.08585738390684128
1779786626334408000,5.367407958984375,0.031127292662858963,-0.04337730258703232,0.07901359349489212
1779786626344490000,5.377489990234375,0.027709659188985825,-0.032164063304662704,0.07610728591680527
1779786626354572000,5.387572021484375,0.026399116963148117,-0.02660524472594261,0.07734059542417526
1779786626364653000,5.397653076171875,0.026194319128990173,-0.014824219979345798,0.07898776233196259
1779786626374735000,5.407735107421875,0.03152596950531006,-0.01410782989114523,0.08045729249715805
1779786626384817200,5.417817138671875,0.029408222064375877,-0.021703165024518967,0.07768148183822632
1779786626394899200,5.427899169921875,0.041303765028715134,-0.020066119730472565,0.07256793975830078
1779786626404981000,5.43798095703125,0.05085013061761856,-0.024936774745583534,0.06470762193202972
1779786626415062000,5.44806201171875,0.0632154569029808,-0.018793128430843353,0.05674130842089653
1779786626425144000,5.45814404296875,0.056705623865127563,0.004147606901824474,0.04333708807826042
1779786626435225900,5.468225830078125,0.053582802414894104,0.01607164368033409,0.031017836183309555
1779786626445308000,5.478307861328125,0.043905407190322876,0.012191418558359146,0.005301288329064846
1779786626455390000,5.488389892578125,0.03694496676325798,0.0024319987278431654,-0.022583872079849243
1779786626465471000,5.498470947265625,0.030958713963627815,-0.009368201717734337,-0.052009936422109604
1779786626475553000,5.508552978515625,0.02111194282770157,-0.02472452074289322,-0.08623821288347244
1779786626485635000,5.518635009765625,0.018764633685350418,-0.032338231801986694,-0.1118927150964737
1779786626495717000,5.528717041015625,0.02033243514597416,-0.04682742804288864,-0.127747043967247
1779786626505799200,5.538799072265625,0.010425209999084473,-0.07584603130817413,-0.1437489092350006
1779786626515880200,5.548880126953125,-0.0016711335629224777,-0.08562622219324112,-0.1451052576303482
1779786626525962200,5.558962158203125,-0.015210111625492573,-0.07886099070310593,-0.13956189155578613
1779786626536044000,5.5690439453125,-0.039380695670843124,-0.060213007032871246,-0.11618572473526001
1779786626546126000,5.5791259765625,-0.06089530885219574,-0.04096980392932892,-0.09944350272417068
1779786626556207900,5.589207763671875,-0.07103076577186584,-0.03524453938007355,-0.07739599049091339
1779786626566290000,5.5992900390625,-0.07240309566259384,-0.03731727972626686,-0.05036357045173645
1779786626576371000,5.609370849609375,-0.067198745906353,-0.037347905337810516,-0.01726474054157734
1779786626586453000,5.619452880859375,-0.05398041009902954,-0.020870128646492958,0.024897359311580658
1779786626596535000,5.62953515625,-0.0376826636493206,0.008904545567929745,0.06831061094999313
1779786626606617000,5.6396171875,-0.023078687489032745,0.04134637489914894,0.09932978451251984
1779786626616699000,5.649698974609375,-0.015381352975964546,0.07672806829214096,0.12747353315353394
1779786626626780200,5.6597802734375,-0.013396765105426311,0.10429657995700836,0.15495683252811432
1779786626636862000,5.669862060546875,-0.007738879881799221,0.10403665155172348,0.1777990311384201
1779786626646944000,5.679944091796875,-0.0009736517095007002,0.08889365196228027,0.19181284308433533
1779786626657026000,5.690026123046875,0.002701244316995144,0.09923604130744934,0.18717707693576813
1779786626667108000,5.700108154296875,-0.11893517524003983,0.29558825492858887,0.15751905739307404
1779786626677189000,5.710189208984375,-0.08947928249835968,0.3423458933830261,0.13592082262039185
1779786626687271200,5.720271240234375,0.003834685543552041,0.08647124469280243,0.12607936561107635
1779786626697353200,5.730353271484375,0.043352000415325165,-0.15270565450191498,0.10474266111850739
1779786626707435000,5.74043505859375,0.019883692264556885,-0.1393997073173523,0.06605944037437439
1779786626717516800,5.750516845703125,0.03193316608667374,-0.11045780032873154,0.004450141917914152
1779786626727598800,5.760598876953125,0.030498521402478218,-0.083925262093544,-0.05100991949439049
1779786626737680000,5.770679931640625,0.04372590780258179,-0.03392307832837105,-0.10550112277269363
1779786626747762000,5.780761962890625,0.057199638336896896,0.010885670781135559,-0.1428072154521942
1779786626757844000,5.790843994140625,0.06096215546131134,0.023806795477867126,-0.17219120264053345
1779786626767926000,5.800926025390625,0.0647164136171341,0.044429514557123184,-0.19102294743061066
1779786626778008000,5.811008056640625,0.06471401453018188,0.042641736567020416,-0.20500321686267853
1779786626788089000,5.821089111328125,0.05433541163802147,0.025370869785547256,-0.20953591167926788
1779786626798171100,5.831171142578125,0.05605900660157204,0.025667013600468636,-0.18853795528411865
1779786626808253000,5.8412529296875,0.05167384818196297,0.045276399701833725,-0.15981416404247284
1779786626818335000,5.8513349609375,0.04272003471851349,0.07545401155948639,-0.12912389636039734
1779786626828417000,5.8614169921875,0.028296086937189102,0.10098733752965927,-0.10025416314601898
1779786626838499000,5.8714990234375,0.011691010557115078,0.10058173537254333,-0.06091315299272537
1779786626848580000,5.881580078125,-0.004896488040685654,0.08206956833600998,-0.022115688771009445
1779786626858662100,5.891662109375,-0.020378774031996727,0.047025833278894424,0.020021112635731697
1779786626868744000,5.901743896484375,-0.0270135086029768,-0.021164940670132637,0.049969159066677094
1779786626878826000,5.911825927734375,-0.02742922678589821,-0.08247996121644974,0.06838065385818481
1779786626888908000,5.921907958984375,-0.022428875789046288,-0.10330615192651749,0.07414160668849945
1779786626898989800,5.93198974609375,-0.016047142446041107,-0.09870447218418121,0.06981290131807327
1779786626909070800,5.94207080078125,-0.0100185452029109,-0.09928584098815918,0.05221793055534363
1779786626919153000,5.95215283203125,-0.006936203222721815,-0.08249327540397644,0.029794912785291672
1779786626929235000,5.96223486328125,-0.008621984161436558,-0.0435115247964859,-0.003035204717889428
1779786626939317000,5.97231689453125,-0.010194314643740654,-0.01296267006546259,-0.0291789248585701
1779786626949399000,5.98239892578125,-0.008732238784432411,-0.010100038722157478,-0.04092506319284439
1779786626959481000,5.992481201171875,-0.009603625163435936,-0.010091516189277172,-0.04006912186741829
1779786626969562000,6.00256201171875,-0.004989432170987129,-0.0046485476195812225,-0.041316013783216476
1779786626979644200,6.01264404296875,0.004789961501955986,-0.008562861941754818,-0.03404105827212334
1779786626989726000,6.022725830078125,0.004436027258634567,-0.003835750976577401,-0.029921947047114372
1779786626999808000,6.03280810546875,0.0027358653023838997,0.004613660275936127,-0.034562770277261734
1779786627009890000,6.04289013671875,0.0000857537888805382,-0.0008729841792955995,-0.03278591111302376
1779786627019970800,6.052970703125,-0.0005882922559976578,-0.009995109401643276,-0.017286311835050583
1779786627030052900,6.063052978515625,-0.002697782125324011,-0.01618163287639618,0.01047607697546482
1779786627040135000,6.073135009765625,0.001597630325704813,-0.042402852326631546,0.016690829768776894
1779786627050217000,6.083217041015625,0.0017691379180178046,-0.062247395515441895,0.021037107333540916
1779786627060299000,6.093299072265625,0.007259244564920664,-0.06921156495809555,0.016868995502591133
1779786627070380800,6.103380859375,0.008495483547449112,-0.08181523531675339,-0.01019697729498148
1779786627080462000,6.113462158203125,0.007620102725923061,-0.08358437567949295,-0.0331406444311142
1779786627090543900,6.1235439453125,-0.0011696603614836931,-0.08988967537879944,-0.04652222990989685
1779786627100626000,6.1336259765625,-0.013642575591802597,-0.11837031692266464,-0.04464283585548401
1779786627110708000,6.1437080078125,-0.0224432572722435,-0.12948928773403168,-0.047575775533914566
1779786627120790000,6.1537900390625,-0.018929217010736465,-0.09267187863588333,-0.0647084191441536
1779786627130872000,6.1638720703125,-0.010476343333721161,-0.016158996149897575,-0.07786284387111664
1779786627140953000,6.173953125,0.000990429543890059,0.05355936661362648,-0.08973414450883865
1779786627151035100,6.18403515625,-0.13879889249801636,0.36898496747016907,-0.10949986428022385
1779786627161117200,6.1941171875,-0.09708473831415176,0.4328638017177582,-0.06996870040893555
1779786627171199000,6.204198974609375,-0.04176981747150421,0.19653916358947754,-0.004762530792504549
1779786627181281000,6.214281005859375,0.001966211711987853,-0.03141944110393524,0.06159678474068642
1779786627191363000,6.224363037109375,-0.021885324269533157,-0.03657212480902672,0.10302305221557617
1779786627201443800,6.23444384765625,-0.01576112024486065,0.0024772724136710167,0.12001508474349976
1779786627211526000,6.24452587890625,-0.011818842962384224,0.0208877045661211,0.13455727696418762
1779786627221608000,6.25460791015625,0.0006522081675939262,0.04201323166489601,0.14096564054489136
1779786627231690000,6.26468994140625,0.011062504723668098,0.041914425790309906,0.1272176057100296
1779786627241772000,6.27477197265625,0.025431856513023376,0.027226828038692474,0.10593309253454208
1779786627251853800,6.284853759765625,0.0322524793446064,0.015571502968668938,0.07360604405403137
1779786627261935900,6.294935791015625,0.03618863224983215,-0.003288205014541745,0.03735269978642464
1779786627272017000,6.305016845703125,0.04656057804822922,-0.015390141867101192,0.003947337158024311
1779786627282099000,6.315098876953125,0.04376425966620445,-0.018282335251569748,-0.021516211330890656
1779786627292181000,6.325180908203125,0.04523831978440285,-0.02430400811135769,-0.04140682891011238
1779786627302263000,6.335262939453125,0.03158855065703392,-0.010993795469403267,-0.06003670394420624
1779786627312345000,6.345344970703125,0.01823333278298378,0.0014804512029513717,-0.06769995391368866
1779786627322427100,6.35542724609375,0.007169762160629034,0.0037262949626892805,-0.07562818378210068
1779786627332508200,6.365508056640625,-0.0011590076610445976,-0.019843213260173798,-0.0803142786026001
1779786627342590200,6.375590087890625,-0.007743407040834427,-0.03941212221980095,-0.08585365861654282
1779786627352672000,6.385672119140625,-0.00951068103313446,-0.051721785217523575,-0.09335950762033463
1779786627362754000,6.395754150390625,-0.00965662207454443,-0.0454135537147522,-0.09846745431423187
1779786627372836000,6.405836181640625,-0.011485680937767029,-0.035233356058597565,-0.09388788044452667
1779786627382918100,6.415918212890625,-0.015161375515162945,-0.02527286671102047,-0.08614101260900497
1779786627393000200,6.426000244140625,-0.02599138766527176,0.004885036498308182,-0.07285423576831818
1779786627403081000,6.4360810546875,-0.03982171416282654,0.010617757216095924,-0.04976702481508255
1779786627413163000,6.4461630859375,-0.0517076700925827,-0.0044011399149894714,-0.028270253911614418
1779786627423245000,6.4562451171875,-0.061652179807424545,-0.011165834963321686,-0.00884861871600151
1779786627433326800,6.466326904296875,-0.07280762493610382,-0.02226242795586586,0.01296373549848795
1779786627443409000,6.476408935546875,-0.07394160330295563,-0.05402088910341263,0.03810051456093788
1779786627453491000,6.486490966796875,-0.07540979981422424,-0.08125890046358109,0.07857950031757355
1779786627463572000,6.496572021484375,-0.06915909796953201,-0.08703716099262238,0.11838337033987045
1779786627473654000,6.506654052734375,-0.06648288667201996,-0.09836944937705994,0.14801156520843506
1779786627483736000,6.516736083984375,-0.05690722540020943,-0.10893820226192474,0.16846410930156708
1779786627493818000,6.526818115234375,-0.04891108348965645,-0.10841595381498337,0.17800462245941162
1779786627503900200,6.536900146484375,-0.03756628558039665,-0.08909764885902405,0.17369136214256287
1779786627513982000,6.54698193359375,-0.014611166901886463,-0.04614485800266266,0.14714764058589935
1779786627524064000,6.55706396484375,0.01266892347484827,0.0017736653098836541,0.11007536947727203
1779786627534145000,6.56714501953125,0.04017937555909157,0.03302106633782387,0.0630631223320961
1779786627544227000,6.57722705078125,0.05542251095175743,0.035589419305324554,0.020301543176174164
1779786627554309000,6.58730908203125,0.07325264066457748,0.03364664316177368,-0.02966947853565216
1779786627564391000,6.597390869140625,0.08535750955343246,0.03219468891620636,-0.08920791000127792
1779786627574473000,6.607472900390625,0.08786780387163162,0.029832463711500168,-0.15219885110855103
1779786627584555000,6.617554931640625,0.07864261418581009,0.045893989503383636,-0.20624931156635284
1779786627594636800,6.62763671875,0.06370973587036133,0.0950346365571022,-0.24831579625606537
1779786627604718000,6.637718017578125,0.04259299859404564,0.13939836621284485,-0.27521586418151855
1779786627614800000,6.6477998046875,0.015740880742669106,0.1695498824119568,-0.28504663705825806
1779786627624882000,6.6578818359375,-0.0057617491111159325,0.15941043198108673,-0.2845318615436554
1779786627634964000,6.6679638671875,-0.02773682214319706,0.1367461234331131,-0.2661595046520233
1779786627645046000,6.6780458984375,-0.05588963255286217,0.0958935022354126,-0.23507723212242126
1779786627655128000,6.688128173828125,-0.07714538276195526,0.07501645386219025,-0.19797059893608093
1779786627665210000,6.698210205078125,-0.1014816164970398,0.07599835842847824,-0.15921708941459656
1779786627675291100,6.708291015625,-0.10880877077579498,0.08932135999202728,-0.11517772078514099
1779786627685373200,6.718373291015625,-0.10716506838798523,0.12688657641410828,-0.06683096289634705
1779786627695455000,6.728455078125,-0.10113700479269028,0.18642526865005493,-0.025249430909752846
1779786627705537000,6.738537109375,-0.09787809103727341,0.2224317342042923,0.005047755315899849
1779786627715619000,6.748619140625,-0.08578547835350037,0.22544430196285248,0.02490242011845112
1779786627725701000,6.758701171875,-0.07638797909021378,0.21258950233459473,0.03786003217101097
1779786627735783200,6.768783203125,-0.08260086923837662,0.18678613007068634,0.0629480704665184
1779786627745864000,6.778864013671875,-0.09143031388521194,0.13381239771842957,0.08612849563360214
1779786627755946000,6.788946044921875,-0.09709272533655167,0.06596969813108444,0.10761035233736038
1779786627766028000,6.799028076171875,-0.10621325671672821,-0.026341326534748077,0.12889619171619415
1779786627776109800,6.80910986328125,-0.11154969781637192,-0.1175287589430809,0.13620604574680328
1779786627786192000,6.81919189453125,-0.09781257808208466,-0.2057691365480423,0.13598579168319702
1779786627796274000,6.82927392578125,-0.06744109094142914,-0.2652769386768341,0.12902376055717468
1779786627806356000,6.83935595703125,-0.02028742805123329,-0.2367164045572281,0.1204553097486496
1779786627816437000,6.84943701171875,0.02815227583050728,-0.13624918460845947,0.10222650319337845
1779786627826519000,6.85951904296875,0.06060608848929405,-0.011183944530785084,0.09093257039785385
1779786627836601000,6.86960107421875,0.08815275877714157,0.04941868036985397,0.08850669860839844
1779786627846683100,6.87968310546875,0.09498722851276398,0.03160080313682556,0.09474515169858932
1779786627856764700,6.8897646484375,0.08514072746038437,-0.025616945698857307,0.0954173356294632
1779786627866846500,6.899846435546875,-0.013277456164360046,-0.016228504478931427,0.1250830888748169
1779786627876928500,6.909928466796875,-0.0005187837523408234,-0.011695005930960178,0.12555153667926788
1779786627887010600,6.920010498046875,0.044621795415878296,-0.011054781265556812,0.08947288990020752
1779786627897091600,6.930091552734375,0.08619001507759094,0.0051782503724098206,0.04722743481397629
1779786627907173600,6.940173583984375,0.09580748528242111,0.02015027590095997,0.012440957129001617
1779786627917255700,6.950255615234375,0.07030825316905975,0.011145329102873802,-0.01635580323636532
1779786627927337700,6.960337646484375,0.04770839959383011,-0.003716174978762865,-0.047991760075092316
1779786627937419800,6.970419677734375,0.0239572636783123,-0.03982251510024071,-0.07371550053358078
1779786627947501600,6.98050146484375,0.0093919038772583,-0.10042833536863327,-0.09353767335414886
1779786627957583600,6.99058349609375,0.005727127660065889,-0.130157470703125,-0.10354050993919373
1779786627967664600,7.00066455078125,0.0282132625579834,-0.1066417545080185,-0.10908707231283188
1779786627977746700,7.01074658203125,0.050326552242040634,-0.07073862105607986,-0.10518234223127365
1779786627987828700,7.020828857421875,0.059118714183568954,-0.03586239367723465,-0.09509003162384033
1779786627997910800,7.030910888671875,0.04330459609627724,0.0094480961561203,-0.08684887737035751
1779786628007992800,7.040992919921875,0.027470506727695465,0.04692676290869713,-0.08642623573541641
1779786628018074600,7.05107470703125,0.010365555062890053,0.06633934378623962,-0.09258639067411423
1779786628028156400,7.061156494140625,0.0016231966437771916,0.05931339040398598,-0.09552279114723206
1779786628038238500,7.071238525390625,-0.003964115399867296,0.016082828864455223,-0.08960205316543579
1779786628048319500,7.081319580078125,-0.010059026069939137,-0.05156305804848671,-0.07384386658668518
1779786628058401500,7.091401611328125,-0.028378644958138466,-0.08791866898536682,-0.054910387843847275
1779786628068483600,7.101483642578125,-0.049851980060338974,-0.08330047875642776,-0.03260774537920952
1779786628078565600,7.111565673828125,-0.08479451388120651,-0.025133315473794937,-0.004944957327097654
1779786628088647700,7.121647705078125,-0.10604627430438995,0.04797152057290077,0.023605193942785263
1779786628098729700,7.131729736328125,-0.09715397655963898,0.06795427948236465,0.06303968280553818
1779786628108811500,7.1418115234375,-0.050396326929330826,-0.003641340183094144,0.1092069149017334
1779786628118893600,7.1518935546875,-0.009801764041185379,-0.04494404047727585,0.13539057970046997
1779786628128974600,7.161974609375,0.015737151727080345,0.0025007082149386406,0.13901807367801666
1779786628139056600,7.172056640625,0.026696059852838516,0.09400346130132675,0.12624315917491913
1779786628149138700,7.182138671875,0.02514982782304287,0.22459928691387177,0.09901952743530273
1779786628159220700,7.192220703125,0.005860552191734314,0.33475881814956665,0.06088998168706894
1779786628169302800,7.202302734375,-0.031073763966560364,0.3510107398033142,0.03774791210889816
1779786628179384800,7.212384765625,-0.06241916865110397,0.28393903374671936,0.03476756811141968
1779786628189466600,7.222466552734375,-0.07308885455131531,0.15403297543525696,0.04819735512137413
1779786628199548700,7.232548583984375,-0.05001123622059822,0.03470737859606743,0.05889474228024483
1779786628209630700,7.242630615234375,-0.020617660135030746,-0.017103353515267372,0.06072486564517021
1779786628219711500,7.25271142578125,0.01136956736445427,-0.00007376955909421667,0.05644623190164566
1779786628229793500,7.26279345703125,0.04099217429757118,0.04272535815834999,0.033249031752347946
1779786628239875600,7.27287548828125,0.05384139344096184,0.08773598074913025,0.009347694925963879
1779786628249957600,7.28295751953125,0.056824665516614914,0.120639868080616,-0.015847938135266304
1779786628260039700,7.293039794921875,0.052740707993507385,0.12599867582321167,-0.027708593755960464
1779786628270121500,7.30312158203125,0.05090765655040741,0.10805642604827881,-0.03316594287753105
1779786628280203500,7.31320361328125,0.04594938084483147,0.053534865379333496,-0.04848897084593773
1779786628290285600,7.32328564453125,0.05245495215058327,-0.00618039770051837,-0.05702733248472214
1779786628300366600,7.33336669921875,0.05627525597810745,-0.02895362116396427,-0.055395349860191345
1779786628310448600,7.34344873046875,0.057379402220249176,-0.0286465585231781,-0.05218224599957466
1779786628320530700,7.35353076171875,0.048286307603120804,-0.007756190374493599,-0.045630067586898804
1779786628330612700,7.36361279296875,0.019109511747956276,0.023788686841726303,-0.04331072047352791
1779786628340694800,7.37369482421875,-0.008046475239098072,0.05198969691991806,-0.04150163754820824
1779786628350776600,7.383776611328125,-0.038905054330825806,0.092453233897686,-0.03292838856577873
1779786628360858600,7.393858642578125,-0.06543972343206406,0.09917638450860977,-0.014056430198252201
1779786628370940700,7.403940673828125,-0.062256183475255966,0.06893406063318253,0.015787219628691673
1779786628381022700,7.414022705078125,-0.06780114769935608,0.016384566202759743,0.04092799127101898
1779786628391103700,7.424103759765625,-0.0653742104768753,-0.015005048364400864,0.056717872619628906
1779786628401185800,7.434185791015625,-0.06790075451135635,-0.02298734150826931,0.06896708160638809
1779786628411267600,7.444267578125,-0.060090236365795135,-0.0003914846747647971,0.066497802734375
1779786628421349600,7.454349609375,-0.04746818169951439,0.025790318846702576,0.059049736708402634
1779786628431431400,7.464431396484375,-0.03953755646944046,0.04593127220869064,0.05824945867061615
1779786628441513500,7.474513427734375,-0.028910212218761444,0.07254690676927567,0.05312393978238106
1779786628451595500,7.484595458984375,-0.023606525734066963,0.059423111379146576,0.05958370119333267
1779786628461677600,7.494677490234375,-0.02051805891096592,0.016438893973827362,0.06945177912712097
1779786628471759600,7.504759521484375,-0.009846772067248821,-0.019821641966700554,0.0764380469918251
1779786628481841700,7.514841552734375,-0.007106112781912088,-0.03576172515749931,0.0783749669790268
1779786628491922700,7.524922607421875,0.0017475662752985954,-0.03494893014431,0.07499701529741287
1779786628502004700,7.535004638671875,0.008159658871591091,-0.056116797029972076,0.07141079753637314
1779786628512086500,7.54508642578125,0.023794012144207954,-0.07965195178985596,0.07485559582710266
1779786628522168600,7.55516845703125,0.03832981362938881,-0.062493737787008286,0.07286888360977173
1779786628532250600,7.565250732421875,0.04312563315033913,-0.005382515024393797,0.05805398151278496
1779786628542332700,7.575332763671875,0.048527587205171585,0.0378405898809433,0.03292039781808853
1779786628552414700,7.585414794921875,0.062124624848365784,0.03407328203320503,0.004523645620793104
1779786628562496800,7.595496826171875,0.06380640715360641,0.017727332189679146,-0.026148246601223946
1779786628572578600,7.60557861328125,0.06125004217028618,0.0029941920656710863,-0.057258494198322296
1779786628582659800,7.615659912109375,0.055931709706783295,-0.002828809665516019,-0.09108090400695801
1779786628592741600,7.62574169921875,0.04140070453286171,-0.01726207695901394,-0.10941676795482635
1779786628602823700,7.63582373046875,0.03326581045985222,-0.037212349474430084,-0.11418622732162476
1779786628612905700,7.64590576171875,0.03212065249681473,-0.049797117710113525,-0.10659994930028915
1779786628622987800,7.65598779296875,0.0344139002263546,-0.03556278720498085,-0.09241275489330292
1779786628633069800,7.66606982421875,0.03844672441482544,0.0044983453117311,-0.08128020912408829
1779786628643151600,7.676151611328125,0.028391961008310318,0.03918681666254997,-0.06596889346837997
1779786628653233400,7.6862333984375,0.013629792258143425,0.029698241502046585,-0.04777071624994278
1779786628663315500,7.6963154296875,-0.008140751160681248,-0.0032866070978343487,-0.03644988685846329
1779786628673397500,7.7063974609375,-0.021023260429501534,-0.04078817740082741,-0.020689832046628
1779786628683478500,7.716478515625,-0.03226366266608238,-0.06318323314189911,-0.004070375580340624
1779786628693560600,7.726560546875,-0.036989178508520126,-0.07492883503437042,0.016763001680374146
1779786628703642600,7.736642578125,-0.029263611882925034,-0.06633774191141129,0.04661623761057854
1779786628713724700,7.746724609375,-0.027397003024816513,-0.03389671444892883,0.0731586292386055
1779786628723806700,7.756806640625,-0.02286536805331707,-0.01830364018678665,0.1002163514494896
1779786628733888500,7.766888427734375,-0.0319368951022625,-0.007957791909575462,0.12187717109918594
1779786628743970600,7.776970458984375,-0.04018417000770569,-0.0032799490727484226,0.13880369067192078
1779786628754052600,7.787052490234375,-0.04671584069728851,-0.004962534178048372,0.14745469391345978
1779786628764134700,7.797134765625,-0.053999584168195724,-0.007780691608786583,0.16089940071105957
1779786628774216700,7.807216796875,-0.045331262052059174,-0.0006585997180081904,0.15863598883152008
1779786628784297700,7.817297607421875,-0.034691400825977325,0.023133547976613045,0.1456621289253235
1779786628794379800,7.8273798828125,-0.01255067903548479,0.0734419897198677,0.12920299172401428
1779786628804461800,7.8374619140625,0.005292499903589487,0.09919742494821548,0.1225951611995697
1779786628814543600,7.847543701171875,0.01715741492807865,0.08234786987304688,0.1266207993030548
1779786628824625700,7.857625732421875,0.029582392424345016,0.061291322112083435,0.1213541254401207
1779786628834707700,7.867707763671875,0.028488898649811745,0.0651228129863739,0.11051692068576813
1779786628844789800,7.877789794921875,0.031501732766628265,0.08580997586250305,0.10068639367818832
1779786628854871600,7.88787158203125,0.03220400959253311,0.10306753218173981,0.08996158093214035
1779786628864953600,7.89795361328125,0.037335388362407684,0.10252051800489426,0.07501379400491714
1779786628875035600,7.90803564453125,0.04415707290172577,0.0738728940486908,0.06155683845281601
1779786628885117400,7.918117431640625,0.051064249128103256,0.03797854110598564,0.04831693321466446
1779786628895198500,7.928198486328125,0.06136908382177353,0.01661652699112892,0.04369794577360153
1779786628905280300,7.9382802734375,0.059427905827760696,0.027474235743284225,0.03239016234874725
1779786628915362300,7.9483623046875,0.055034223943948746,0.05951712280511856,0.012138155288994312
1779786628925444400,7.9584443359375,0.038901325315237045,0.0710720494389534,-0.007236607372760773
1779786628935526400,7.9685263671875,0.029040971770882607,0.06362611055374146,-0.020710870623588562
1779786628945608400,7.9786083984375,0.01991218887269497,0.050277817994356155,-0.02798929065465927
1779786628955690500,7.9886904296875,0.013429522514343262,0.018616560846567154,-0.04021080210804939
1779786628965772300,7.998772216796875,0.018373414874076843,-0.009090700186789036,-0.04912120848894119
1779786628975854300,8.008854248046875,0.020290624350309372,-0.0034045851789414883,-0.061884406954050064
1779786628985936400,8.018936279296875,0.023019831627607346,-0.009988185949623585,-0.06342797726392746
1779786628996018400,8.029018310546874,0.023316508159041405,-0.017059143632650375,-0.05763213708996773
1779786629006099500,8.039099365234375,0.023187344893813133,-0.005792641546577215,-0.04471154510974884
1779786629016181500,8.049181396484375,0.016691096127033234,0.018326543271541595,-0.02955176681280136
1779786629026263600,8.059263671875,0.006418218370527029,0.04785007983446121,-0.015207182615995407
1779786629036345600,8.069345703125,0.0033015208318829536,0.055382031947374344,0.0011528824688866735
1779786629046427400,8.079427490234375,-0.0001150485550169833,0.0539734847843647,0.0032061797101050615
1779786629056509400,8.089509521484375,-0.006387591827660799,0.026548519730567932,-0.0035867453552782536
1779786629066591500,8.099591552734376,-0.016155799850821495,-0.013526461087167263,-0.01842028647661209
1779786629076673500,8.109673583984375,-0.02124590054154396,-0.03446769714355469,-0.02659033238887787
1779786629086755600,8.119755615234375,-0.030615167692303658,-0.021951371803879738,-0.035403262823820114
1779786629096837600,8.129837646484376,-0.0372520312666893,-0.0021907163318246603,-0.028367193415760994
1779786629106919400,8.13991943359375,-0.03630181401968002,0.01569693721830845,-0.006773483939468861
1779786629117001500,8.15000146484375,-0.03268497437238693,0.027838289737701416,0.013311544433236122
1779786629127082200,8.160082275390625,-0.030345389619469643,0.03677212819457054,0.044617533683776855
1779786629137164300,8.170164306640626,-0.024697355926036835,0.03242292255163193,0.07579968869686127
1779786629147246300,8.180246337890624,-0.030838074162602425,-0.00013395700079854578,0.11242188513278961
1779786629157328400,8.190328369140625,-0.03196139633655548,-0.014153103344142437,0.1400870680809021
1779786629167410400,8.200410400390625,-0.036130838096141815,-0.006789728999137878,0.16608138382434845
1779786629177492500,8.210492431640626,-0.036163330078125,0.013548566028475761,0.1856798529624939
1779786629187574300,8.22057421875,-0.029145635664463043,0.03274596109986305,0.19157928228378296
1779786629197656300,8.23065625,-0.016164323315024376,0.04412831366062164,0.1917143017053604
1779786629207738400,8.24073828125,-0.005917544011026621,0.03964701294898987,0.1856955587863922
1779786629217820400,8.2508203125,0.010704043321311474,-0.001999501371756196,0.16839326918125153
1779786629227902500,8.26090234375,0.02232501283288002,-0.07661834359169006,0.15001267194747925
1779786629237984500,8.270984619140625,0.03364504501223564,-0.1138613224029541,0.12299835681915283
1779786629248066300,8.28106640625,0.04008376970887184,-0.11799214780330658,0.08975332230329514
1779786629258147600,8.291147705078124,0.04634512960910797,-0.10870091617107391,0.046897467225790024
1779786629268229400,8.3012294921875,0.05419852212071419,-0.09273579716682434,0.008786567486822605
1779786629278311400,8.3113115234375,0.06506794691085815,-0.07310350239276886,-0.020711403340101242
1779786629288393500,8.3213935546875,0.07775125652551651,-0.05200221389532089,-0.05329917371273041
1779786629298475500,8.3314755859375,0.09024813771247864,-0.03554494306445122,-0.07396690547466278
1779786629308557600,8.3415576171875,0.08666379004716873,-0.032345421612262726,-0.09358587861061096
1779786629318639600,8.3516396484375,0.07859814167022705,-0.027827635407447815,-0.1074494943022728
1779786629328721400,8.361721435546874,0.05772082135081291,-0.018996860831975937,-0.10799331218004227
1779786629338803500,8.371803466796875,0.04282283037900925,-0.017011474817991257,-0.10383052378892899
1779786629348885500,8.381885498046875,0.0309336818754673,-0.00908457487821579,-0.09801178425550461
1779786629358967600,8.391967529296876,0.022491194307804108,0.00692075677216053,-0.09608578681945801
1779786629369049300,8.40204931640625,0.010596717707812786,0.026997795328497887,-0.09474115818738937
1779786629379131400,8.41213134765625,-0.005631520412862301,0.03226446360349655,-0.09563065320253372
1779786629389212400,8.42221240234375,-0.022487998008728027,0.02936081774532795,-0.09721975773572922
1779786629399294500,8.43229443359375,-0.04549877345561981,0.01942749321460724,-0.08783158659934998
1779786629409376300,8.442376220703125,-0.06021567061543465,0.0021015002857893705,-0.0718584805727005
1779786629419458300,8.452458251953125,-0.06247962266206741,-0.011385546065866947,-0.05781989172101021
1779786629429540400,8.462540283203126,-0.061105698347091675,0.001583249308168888,-0.036368392407894135
1779786629439622400,8.472622314453124,-0.058040399104356766,0.01173228956758976,-0.0224981177598238
1779786629449704400,8.482704345703125,-0.050689008086919785,0.006364688742905855,-0.017523333430290222
1779786629459786500,8.492786376953125,-0.04234479367733002,-0.020122045651078224,-0.018262360244989395
1779786629469868500,8.50286865234375,-0.03910958394408226,-0.07230935245752335,-0.00592659879475832
1779786629479950300,8.512950439453125,-0.03808959573507309,-0.11842437833547592,0.010273942723870277
1779786629490032400,8.523032470703125,-0.03352147340774536,-0.131987065076828,0.010152502916753292
1779786629500114400,8.533114501953126,-0.02467951364815235,-0.11763262003660202,0.0128145981580019
1779786629510196500,8.543196533203124,-0.015051387250423431,-0.08628721535205841,0.006072539836168289
1779786629520278500,8.553278564453125,-0.002159290947020054,-0.05778846517205238,0.003057841444388032
1779786629530360600,8.563360595703125,0.019781693816184998,-0.03615906834602356,-0.0035931370221078396
1779786629540441600,8.573441650390626,0.04133172705769539,-0.025712020695209503,-0.017535317689180374
1779786629550523400,8.5835234375,0.057018544524908066,-0.014146711677312851,-0.023256054148077965
1779786629560605400,8.59360546875,0.06626290827989578,-0.002627474721521139,-0.02875841036438942
1779786629570687500,8.6036875,0.07076524943113327,0.028244420886039734,-0.03472016379237175
1779786629580769500,8.61376953125,0.07866445183753967,0.06991543620824814,-0.031981635838747025
1779786629590851600,8.6238515625,0.08262430876493454,0.11882838606834412,-0.006974020041525364
1779786629600933400,8.633933349609375,0.09807463735342026,0.1829778105020523,-0.008298676460981369
1779786629611015400,8.644015380859376,0.10187869518995285,0.23619389533996582,-0.011991947889328003
1779786629621097200,8.65409716796875,0.10882661491632462,0.20644611120224,0.002222674200311303
1779786629631179300,8.66417919921875,0.1014842763543129,0.14297978579998016,0.025251559913158417
1779786629641261300,8.67426123046875,0.0919690728187561,0.07041717320680618,0.047021038830280304
1779786629651343400,8.68434326171875,0.08472979813814163,0.015333149582147598,0.07082650065422058
1779786629661425400,8.69442529296875,0.08143787086009979,-0.002046106616035104,0.09202472865581512
1779786629671507500,8.704507568359375,0.07618078589439392,-0.015283881686627865,0.10718557238578796
1779786629681589200,8.71458935546875,0.07920560240745544,-0.009243299253284931,0.09974896162748337
1779786629691670500,8.72467041015625,0.07706895470619202,-0.016772055998444557,0.0921589583158493
1779786629701752300,8.73475244140625,0.07400444895029068,-0.0356738418340683,0.07735204696655273
1779786629711834400,8.74483447265625,0.0635070726275444,-0.034447457641363144,0.04893318936228752
1779786629721916400,8.75491650390625,0.048583779484033585,-0.03436756134033203,0.014225008897483349
1779786629731998500,8.76499853515625,0.04199032858014107,-0.033193640410900116,-0.027336282655596733
1779786629742080500,8.77508056640625,0.026735739782452583,-0.042030006647109985,-0.05901671573519707
1779786629752162600,8.78516259765625,0.018437329679727554,-0.06560058146715164,-0.08656418323516846
1779786629762244400,8.795244384765626,0.024637702852487564,-0.09115307778120041,-0.10467234998941422
1779786629772326400,8.805326416015625,0.03130705654621124,-0.07846497744321823,-0.11553724855184555
1779786629782408400,8.815408447265625,0.015264706686139107,-0.04144464433193207,-0.12124280631542206
1779786629792490500,8.825490478515626,0.01432567648589611,-0.012023906223475933,-0.1067192554473877
1779786629802572500,8.835572509765624,-0.010436395183205605,0.0011792477453127503,-0.09279358386993408
1779786629812654600,8.845654541015625,-0.0232912078499794,-0.005776130128651857,-0.07542258501052856
1779786629822736400,8.855736328125,-0.04001159965991974,-0.016450878232717514,-0.049736928194761276
1779786629832818400,8.865818359375,-0.054190002381801605,-0.020837636664509773,-0.009862484410405159
1779786629842900500,8.875900390625,-0.06252782791852951,-0.016405871137976646,0.030160032212734222
1779786629852982500,8.885982421875,-0.061952847987413406,-0.016764333471655846,0.07520793378353119
1779786629863064600,8.896064697265626,-0.07051464915275574,-0.01859472319483757,0.10811208933591843
1779786629873145300,8.906145263671876,-0.0827564001083374,-0.007230748422443867,0.12961791455745697
1779786629883227400,8.916227294921875,-0.09248173236846924,-0.003783819265663624,0.14098775386810303
1779786629893309400,8.926309326171875,-0.09066306054592133,-0.016211461275815964,0.15383803844451904
1779786629903391500,8.9363916015625,-0.07987911999225616,-0.03141837567090988,0.14968350529670715
1779786629913473300,8.946473388671874,-0.05970807000994682,-0.050274357199668884,0.13149037957191467
1779786629923555300,8.956555419921875,-0.03141944110393524,-0.06011873111128807,0.11457185447216034
1779786629933637400,8.966637451171875,-0.005261074751615524,-0.07127711176872253,0.08919352293014526
1779786629943719400,8.976719482421874,0.018695123493671417,-0.06612628698348999,0.05867796018719673
1779786629953801500,8.986801513671875,0.03050038404762745,-0.05625448375940323,0.02767450548708439
1779786629963883500,8.996883544921875,0.04037751629948616,-0.07491365820169449,-0.0023339942563325167
1779786629973965300,9.00696533203125,0.03964195027947426,-0.09956307709217072,-0.03736814484000206
1779786629984047400,9.01704736328125,0.037335921078920364,-0.09008967876434326,-0.07871824502944946
1779786629994129400,9.02712939453125,0.03406209498643875,-0.08179446309804916,-0.11123357713222504
1779786630004211500,9.03721142578125,0.027997545897960663,-0.08029776811599731,-0.1380729228258133
1779786630014293500,9.04729345703125,0.021743377670645714,-0.0968405231833458,-0.15515443682670593
1779786630024375600,9.05737548828125,0.03683710843324661,-0.10684682428836823,-0.15911509096622467
1779786630034457300,9.067457275390625,0.027221767231822014,-0.11069907993078232,-0.15653501451015472
1779786630044539400,9.077539306640626,0.030365895479917526,-0.10786707699298859,-0.15387718379497528
1779786630054621400,9.087621337890624,0.027725636959075928,-0.08928807079792023,-0.14571724832057953
1779786630064703500,9.097703369140625,0.02058144100010395,-0.05638231709599495,-0.1368505209684372
1779786630074785500,9.10778564453125,0.02190583199262619,-0.036489300429821014,-0.12410970032215118
1779786630084866600,9.117866455078126,0.028023378923535347,-0.017490310594439507,-0.11796285212039948
1779786630094948600,9.127948486328124,0.025309616699814796,0.016337161883711815,-0.11395160108804703
1779786630105030700,9.13803076171875,0.010694989003241062,0.03292439505457878,-0.11157819628715515
1779786630115112400,9.148112548828125,-0.000955009541939944,0.04140815883874893,-0.1181495413184166
1779786630125194200,9.1581943359375,-0.014677479863166809,0.03622564673423767,-0.13026666641235352
1779786630135276300,9.1682763671875,-0.018976621329784393,0.008884571492671967,-0.14164341986179352
1779786630145358300,9.1783583984375,-0.029508357867598534,-0.02237801067531109,-0.1442652940750122
1779786630155440400,9.1884404296875,-0.04001585766673088,-0.05554155632853508,-0.13950036466121674
1779786630165522400,9.1985224609375,-0.02756105363368988,-0.051772650331258774,-0.12114053964614868
1779786630175604200,9.208604248046875,-0.029705164954066277,-0.017311878502368927,-0.10300388187170029
1779786630185686300,9.218686279296875,-0.04243960231542587,-0.009497897699475288,-0.08433032780885696
1779786630195768300,9.228768310546876,-0.05415484681725502,-0.0145901283249259,-0.06627596169710159
1779786630205850400,9.238850341796875,-0.06554998457431793,0.01197783276438713,-0.0470426082611084
1779786630215932400,9.248932373046875,-0.07359565794467926,0.035480231046676636,-0.02305605076253414
1779786630226014500,9.259014404296876,-0.086204394698143,0.04663807526230812,0.005888781975954771
1779786630236096300,9.26909619140625,-0.07668918371200562,0.05073321983218193,0.027477430179715157
1779786630246178300,9.27917822265625,-0.06654200702905655,0.044624991714954376,0.04676910489797592
1779786630256260400,9.28926025390625,-0.04736911505460739,0.003471963107585907,0.05606326833367348
1779786630266342400,9.29934228515625,-0.01955772191286087,-0.06369562447071075,0.06059570237994194
1779786630276424400,9.309424560546875,0.002445314545184374,-0.1076553538441658,0.0571620874106884
1779786630286506500,9.319506591796875,0.01136876828968525,-0.09419520944356918,0.047516386955976486
1779786630296588500,9.329588623046876,0.016957944259047508,-0.06546343117952347,0.03218217194080353
1779786630306670300,9.33967041015625,0.02954244613647461,-0.03993622958660126,0.013978400267660618
1779786630316751400,9.34975146484375,0.0421072393655777,0.013420999981462955,-0.015498798340559006
1779786630326833400,9.35983349609375,0.05723080039024353,0.06867679953575134,-0.04557201266288757
1779786630336915500,9.36991552734375,0.06747571378946304,0.09423834830522537,-0.05630375072360039
1779786630346997500,9.37999755859375,0.0769009068608284,0.0862150490283966,-0.05541079491376877
1779786630357079600,9.39007958984375,0.08153054863214493,0.06077945977449417,-0.05395937338471413
1779786630367161600,9.40016162109375,0.08406134694814682,0.04108858108520508,-0.04273228347301483
1779786630377243400,9.410243408203126,0.07709771394729614,0.01799444667994976,-0.034997131675481796
1779786630387325400,9.420325439453125,0.06669647246599197,-0.00166580721270293,-0.02556767873466015
1779786630397407500,9.430407470703125,0.05355323851108551,0.0024165522772818804,-0.021890917792916298
1779786630407489500,9.440489501953126,0.055569518357515335,0.022914903238415718,-0.02803696133196354
1779786630417571600,9.450571533203124,0.05085785314440727,0.05222698673605919,-0.03123035654425621
1779786630427653400,9.4606533203125,0.05347893759608269,0.07430192828178406,-0.043717920780181885
1779786630437735400,9.4707353515625,0.05337773635983467,0.058820441365242004,-0.055641692131757736
1779786630447817200,9.480817138671876,0.04794781655073166,0.030656978487968445,-0.06255712360143661
1779786630457899300,9.490899169921875,0.04053517431020737,-0.004012584686279297,-0.06891435384750366
1779786630467981300,9.500981201171875,0.036249082535505295,-0.022822225466370583,-0.06855615973472595
1779786630478063400,9.5110634765625,0.03846297040581703,-0.02618260122835636,-0.07387076318264008
1779786630488145400,9.5211455078125,0.04916408285498619,-0.014847389422357082,-0.0644114762544632
1779786630498227500,9.5312275390625,0.05591439828276634,0.002939597237855196,-0.060628458857536316
1779786630508309200,9.541309326171875,0.07099348306655884,0.017532387748360634,-0.05915999412536621
1779786630518391300,9.551391357421876,0.0728134885430336,0.013456952758133411,-0.07748919725418091
1779786630528473300,9.561473388671875,0.06549059599637985,-0.0020453077740967274,-0.10333278030157089
1779786630538555400,9.571555419921875,0.05356975272297859,-0.01672678254544735,-0.12854252755641937
1779786630548637400,9.581637451171876,0.0341009795665741,-0.020682908594608307,-0.13720472157001495
1779786630558719500,9.591719482421874,0.009706689044833183,0.0029409287963062525,-0.13208027184009552
1779786630568801300,9.60180126953125,-0.005000617355108261,0.01961497962474823,-0.11641422659158707
1779786630578883300,9.61188330078125,-0.009380718693137169,0.010929879732429981,-0.08952242881059647
1779786630588965400,9.62196533203125,-0.0054877097718417645,-0.008009989745914936,-0.05799033120274544
1779786630599047400,9.63204736328125,-0.006910103838890791,-0.016056464985013008,-0.03194168582558632
1779786630609129500,9.64212939453125,-0.009002016857266426,-0.02899676375091076,-0.02081633172929287
1779786630619211500,9.65221142578125,-0.017647171393036842,-0.04207421466708183,-0.014493188820779324
1779786630629292500,9.66229248046875,-0.03158535808324814,-0.06061461195349693,-0.014574681408703327
1779786630639374600,9.67237451171875,-0.04506654292345047,-0.0907573327422142,-0.018151840195059776
1779786630649456400,9.682456298828125,-0.051290351897478104,-0.08899351954460144,-0.02618073672056198
1779786630659538400,9.692538330078126,-0.048655152320861816,-0.08168953657150269,-0.030939806252717972
1779786630669620500,9.702620361328124,-0.0414089597761631,-0.07385744899511337,-0.02796904928982258
1779786630679702500,9.71270263671875,-0.024403076618909836,-0.07884874194860458,-0.015291870571672916
1779786630689784600,9.72278466796875,-0.017654094845056534,-0.10542842000722885,-0.009796437807381153
1779786630699866600,9.73286669921875,-0.009646235965192318,-0.13568565249443054,0.006116215605288744
1779786630709948400,9.742948486328125,-0.019051721319556236,-0.12251446396112442,0.016764333471655846
1779786630720030500,9.753030517578125,-0.030759776011109352,-0.08968860656023026,0.030790669843554497
1779786630730112300,9.7631123046875,-0.03867016360163689,-0.05479640141129494,0.04880402609705925
1779786630740194300,9.7731943359375,-0.037758562713861465,-0.03123435191810131,0.06740220636129379
1779786630750276400,9.7832763671875,-0.02737436629831791,-0.010636664927005768,0.08294335007667542
1779786630760358400,9.7933583984375,-0.004281031433492899,-0.00256382510997355,0.09989490360021591
1779786630770440400,9.8034404296875,0.01660587452352047,-0.020669059827923775,0.11207514256238937
1779786630780522200,9.813522216796875,0.04066433757543564,-0.03651806339621544,0.12235573679208755
1779786630790604300,9.823604248046875,0.0547545924782753,-0.032157670706510544,0.12191658467054367
1779786630800686300,9.833686279296876,0.06653135269880295,-0.004079962614923716,0.11069907993078232
1779786630810768400,9.843768310546874,0.07348620146512985,0.019086342304944992,0.1036936417222023
1779786630820850400,9.853850341796875,0.08017739653587341,0.028418324887752533,0.09138264507055283
1779786630830932500,9.863932373046875,0.0860866829752922,0.03816869109869003,0.06532121449708939
1779786630841014300,9.87401416015625,0.0943792313337326,0.04500582441687584,0.0394001379609108
1779786630851096300,9.884096435546875,0.0908912867307663,0.014631939120590687,0.017661018297076225
1779786630861179000,9.894178955078125,0.07851585000753403,-0.025179123505949974,0.0033417344093322754
1779786630871261000,9.904260986328126,0.054606255143880844,-0.0333358533680439,-0.01266785804182291
1779786630881343000,9.914343017578124,0.0382230207324028,-0.027283553034067154,-0.025553030893206596
1779786630891424800,9.9244248046875,0.019718578085303307,-0.008973521180450916,-0.03699982911348343
1779786630901506800,9.9345068359375,0.012137356214225292,0.023179620504379272,-0.042388204485177994
1779786630911588900,9.9445888671875,0.003998736385256052,0.06452226638793945,-0.04821333661675453
1779786630921671000,9.9546708984375,0.0009022789890877903,0.08673089742660522,-0.05386083573102951
1779786630931753000,9.9647529296875,0.0025417208671569824,0.10116736590862274,-0.059007927775382996
1779786630941835000,9.9748349609375,-0.013127519749104977,0.09742748737335205,-0.05729205161333084
1779786630951917000,9.9849169921875,-0.033368609845638275,0.07636880874633789,-0.05756955221295357
1779786630961998800,9.994998779296875,-0.05097663030028343,0.07476318627595901,-0.06451454758644104
1779786630972081000,10.005080810546875,-0.07504867762327194,0.06995484977960587,-0.06340773403644562
1779786630982163000,10.015162841796876,-0.09143936634063721,0.05667100101709366,-0.05836557224392891
1779786630992245000,10.025244873046875,-0.10774563997983932,0.05596446618437767,-0.04571742191910744
1779786631002327000,10.0353271484375,-0.10746493935585022,0.06019223481416702,-0.025369804352521896
1779786631012409000,10.0454091796875,-0.10880690813064575,0.05080538988113403,-0.0038067223504185677
1779786631022491000,10.055490966796874,-0.11053583025932312,0.029588785022497177,0.02322356402873993
1779786631032573000,10.065572998046875,-0.10830330103635788,0.02237747795879841,0.04770760238170624
1779786631042655000,10.075655029296875,-0.10079371929168701,0.02827557921409607,0.06983713805675507
1779786631052737000,10.085737060546874,-0.09381570667028427,0.035715654492378235,0.08776021003723145
1779786631062819000,10.095819091796875,-0.07913130521774292,0.034925226122140884,0.09555795043706894
1779786631072900900,10.10590087890625,-0.05542623996734619,0.031380027532577515,0.10146243870258331
1779786631082982700,10.115982666015626,-0.03110598772764206,0.01979341171681881,0.10094605386257172
1779786631093064700,10.126064697265624,-0.0010402307379990816,0.01709536276757717,0.09512198716402054
1779786631103146800,10.136146728515625,0.021090371534228325,0.009119728580117226,0.08075796067714691
1779786631113228800,10.146228759765625,0.036440566182136536,0.01461889035999775,0.06247323006391525
1779786631123310800,10.156310791015626,0.05212285742163658,0.0313589870929718,0.03374224901199341
1779786631133393000,10.166392822265625,0.06095442920923233,0.048348091542720795,0.012690494768321514
1779786631143475000,10.176474853515625,0.07157698273658752,0.05288398638367653,-0.002572613535448909
1779786631153556700,10.186556640625,0.0754859670996666,0.038664039224386215,-0.019036807119846344
1779786631163638800,10.196638671875,0.07507530599832535,0.015547268092632294,-0.028363997116684914
1779786631173720800,10.206720947265625,0.07825858891010284,0.011927499435842037,-0.039752207696437836
1779786631183803000,10.216802978515625,0.06827226281166077,0.01678883284330368,-0.0475321002304554
1779786631193885000,10.226885009765626,0.05784838646650314,0.03242664784193039,-0.05706221982836723
1779786631203967000,10.236967041015625,0.050765976309776306,0.05968650057911873,-0.06844697147607803
1779786631214048800,10.247048828125,0.0332208052277565,0.0904068648815155,-0.08361633121967316
1779786631224130800,10.257130859375,0.01924959383904934,0.08424404263496399,-0.09793908149003983
1779786631234212900,10.267212890625,0.011332282796502113,0.06587541848421097,-0.10741540789604187
1779786631244295000,10.277294921875,-0.004887965973466635,0.03701021522283554,-0.11283280700445175
1779786631254377000,10.287376953125,-0.020895959809422493,0.007830492220818996,-0.09767276048660278
1779786631264459000,10.297458984375,-0.041245173662900925,-0.013277722522616386,-0.07730331271886826
1779786631274540800,10.307540771484375,-0.05884573981165886,-0.00752103328704834,-0.04825993999838829
1779786631284622800,10.317622802734375,-0.07187046110630035,0.0017054883064702153,-0.022359101101756096
1779786631294705000,10.327704833984376,-0.07504681497812271,-0.00866059958934784,0.008726113475859165
1779786631304787000,10.337786865234374,-0.07185181975364685,-0.007839547470211983,0.0433376207947731
1779786631314869000,10.347868896484375,-0.06901635229587555,-0.0027632960118353367,0.07121772319078445
1779786631324951000,10.357950927734375,-0.055516522377729416,-0.008115450851619244,0.08833279460668564
1779786631335032800,10.36803271484375,-0.038663506507873535,-0.008586830459535122,0.0992879718542099
1779786631345115000,10.378114990234375,-0.017007213085889816,0.010012154467403889,0.09783308953046799
1779786631355197000,10.388197021484375,0.01495338324457407,0.03741421550512314,0.08945824205875397
1779786631365279000,10.398279052734376,0.04467213153839111,0.04868844151496887,0.08075743168592453
1779786631375361000,10.408361083984374,0.06500563025474548,0.032272983342409134,0.06876947730779648
1779786631385443000,10.418443115234375,0.08071269094944,0.019026154652237892,0.05505632609128952
1779786631395524900,10.42852490234375,0.08474018424749374,0.007072024047374725,0.03503281995654106
1779786631405607000,10.43860693359375,0.08196704089641571,-0.00361790438182652,0.01552329957485199
1779786631415689000,10.44868896484375,0.077642060816288,-0.00951041467487812,-0.0032626385800540447
1779786631425771000,10.45877099609375,0.07482896745204926,0.00038695731200277805,-0.018377408385276794
1779786631435853000,10.46885302734375,0.07219909876585007,0.013880928047001362,-0.02208799123764038
1779786631445934800,10.478934814453124,0.071952223777771,0.01846262998878956,-0.03488847613334656
1779786631456017000,10.489016845703125,0.07969696074724197,0.019119365140795708,-0.0452396497130394
1779786631466098700,10.4990986328125,0.07684604823589325,0.02863803692162037,-0.05661427602171898
1779786631476180700,10.5091806640625,0.07412296533584595,0.05061044543981552,-0.06154432147741318
1779786631486262800,10.5192626953125,0.06785547733306885,0.06721552461385727,-0.06537847220897675
1779786631496344800,10.5293447265625,0.059306997805833817,0.06653641909360886,-0.0684024915099144
1779786631506427000,10.539427001953126,0.05143709108233452,0.05596659705042839,-0.05788407102227211
1779786631516509000,10.549509033203124,0.04388516768813133,0.052503954619169235,-0.05306108668446541
1779786631526590700,10.5595908203125,0.0354464091360569,0.04290032759308815,-0.04669560119509697
1779786631536672800,10.5696728515625,0.021520471200346947,0.017647968605160713,-0.03639981895685196
1779786631546754800,10.5797548828125,0.009876066818833351,-0.0029739518649876118,-0.030727019533514977
1779786631556836900,10.5898369140625,-0.00398781755939126,0.008384429849684238,-0.017422666773200035
1779786631566919000,10.5999189453125,-0.019043998792767525,0.014934208244085312,0.005133775528520346
1779786631577001000,10.6100009765625,-0.028774389997124672,0.01531610544770956,0.026403378695249557
1779786631587082800,10.620082763671874,-0.03225674107670784,0.021470671519637108,0.04629825800657272
1779786631597164800,10.630164794921875,-0.03392654284834862,0.02111300826072693,0.057492587715387344
1779786631607246800,10.640246826171875,-0.027582891285419464,-0.007542338687926531,0.06529565155506134
1779786631617329000,10.650328857421876,-0.013590376824140549,-0.028377579525113106,0.056592173874378204
1779786631627411000,10.660410888671874,-0.00046392265358008444,-0.03706640750169754,0.040889907628297806
1779786631637493000,10.670492919921875,0.005315402988344431,-0.04027338698506355,0.012003932148218155
1779786631647574800,10.68057470703125,0.01576138660311699,-0.01504100114107132,-0.012385030277073383
1779786631657656800,10.69065673828125,0.023013440892100334,0.0025992451701313257,-0.04163506254553795
1779786631667739000,10.70073876953125,0.023486150428652763,0.006682936567813158,-0.05802708491683006
1779786631677821000,10.710821044921875,0.014394918456673622,0.0023558323737233877,-0.06997775286436081
1779786631687903000,10.720903076171876,0.00881932396441698,-0.021816348657011986,-0.07377196103334427
1779786631697985000,10.730985107421875,-0.0017510283505544066,-0.04326198622584343,-0.07797709107398987
1779786631708066800,10.74106689453125,-0.013951501809060574,-0.05429146811366081,-0.06771805882453918
1779786631718148900,10.75114892578125,-0.028200479224324226,-0.052195824682712555,-0.056354884058237076
1779786631728231000,10.76123095703125,-0.03977670893073082,-0.03268603980541229,-0.04499303922057152
1779786631738313000,10.77131298828125,-0.044442299753427505,-0.013440707698464394,-0.030236732214689255
1779786631748395000,10.78139501953125,-0.05469946563243866,0.007719704881310463,-0.012102735228836536
1779786631758477000,10.79147705078125,-0.055394284427165985,0.016213590279221535,0.002641855739057064
1779786631768559000,10.80155908203125,-0.05018114671111107,0.015573101118206978,0.012568255886435509
1779786631778641000,10.811640869140625,-0.04862639307975769,0.020679712295532227,0.027790086343884468
1779786631788723000,10.821722900390625,-0.05342967063188553,0.002675145398825407,0.043001797050237656
1779786631798805000,10.831804931640624,-0.06767624616622925,-0.01636379398405552,0.05805690959095955
1779786631808887000,10.841886962890625,-0.07017216086387634,-0.006929545197635889,0.055691491812467575
1779786631818968800,10.85196875,-0.0675010159611702,0.02635091356933117,0.055032890290021896
1779786631829051000,10.86205078125,-0.06759395450353622,0.041250232607126236,0.05127410590648651
1779786631839132700,10.872132568359374,-0.057986870408058167,0.024026505649089813,0.05258464813232422
1779786631849214700,10.882214599609375,-0.05564994737505913,0.016881778836250305,0.046782419085502625
1779786631859296300,10.892296142578125,-0.0461757518351078,0.007259510923177004,0.0397024042904377
1779786631869378300,10.90237841796875,-0.045932337641716,-0.0063007730059325695,0.0280300360172987
1779786631879460400,10.91246044921875,-0.04577627778053284,-0.0209492240101099,0.018548917025327682
1779786631889542400,10.92254248046875,-0.03591778874397278,-0.03730848804116249,0.016561400145292282
1779786631899624400,10.93262451171875,-0.025551166385412216,-0.04916328564286232,0.012223110534250736
1779786631909706200,10.942706298828124,-0.010040117427706718,-0.0640128031373024,0.022065088152885437
1779786631919788300,10.952788330078125,0.011231881566345692,-0.06407085806131363,0.034496456384658813
1779786631929870300,10.962870361328125,0.027660923078656197,-0.051000066101551056,0.042929891496896744
1779786631939952400,10.972952392578126,0.04620824009180069,-0.03357553854584694,0.044498492032289505
1779786631950034400,10.983034423828125,0.058151718229055405,-0.004142014309763908,0.03879772871732712
1779786631960116200,10.9931162109375,0.06820221990346909,0.03202850744128227,0.03680834919214249
1779786631970198300,11.0031982421875,0.06853272020816803,0.0469222366809845,0.03567410632967949
1779786631980280000,11.013280029296874,0.0668080598115921,0.049726277589797974,0.029917685315012932
1779786631990362000,11.023362060546875,0.0662863478064537,0.045405562967061996,0.018496185541152954
1779786632000444200,11.033444091796875,0.06691964715719223,0.0470479354262352,0.005051483865827322
1779786632010526200,11.043526123046876,0.07113516330718994,0.06601736694574356,-0.006101568229496479
1779786632020608300,11.053608154296874,0.08244320750236511,0.08312631398439407,-0.015399728901684284
1779786632030690300,11.063690185546875,0.09361916780471802,0.08893493562936783,-0.021136976778507233
1779786632040772000,11.073772216796876,0.09222686290740967,0.09816119074821472,-0.029934728518128395
1779786632050854100,11.083854248046874,0.08313536643981934,0.1085275411605835,-0.0502365380525589
1779786632060936200,11.093936279296875,0.0747663825750351,0.08199047297239304,-0.06758676469326019
1779786632071018200,11.104018310546875,0.061772286891937256,0.02124110609292984,-0.07938829809427261
1779786632081100300,11.114100341796876,0.04872040078043938,-0.030305974185466766,-0.09108196943998337
1779786632091182300,11.124182373046875,0.03988376632332802,-0.053519416600465775,-0.11755646020174026
1779786632101265200,11.13426513671875,0.02973153069615364,-0.052916742861270905,-0.13724574446678162
1779786632111347200,11.14434716796875,0.009229451417922974,-0.05458521470427513,-0.15156050026416779
1779786632121429200,11.15442919921875,-0.007986820302903652,-0.07592485845088959,-0.15055568516254425
1779786632131511300,11.16451123046875,-0.026503778994083405,-0.09216534346342087,-0.13654319941997528
1779786632141593300,11.17459326171875,-0.053050968796014786,-0.09481039643287659,-0.11968059092760086
1779786632151675100,11.184675048828124,-0.0836767852306366,-0.07677360624074936,-0.10122222453355789
1779786632161757200,11.194757080078125,-0.1110873743891716,-0.06365088373422623,-0.0688946470618248
1779786632171839200,11.204839111328125,-0.13070794939994812,-0.07804606854915619,-0.04190057888627052
1779786632181921300,11.21492138671875,-0.13939997553825378,-0.09836332499980927,-0.012057461775839329
1779786632192003300,11.22500341796875,-0.14861316978931427,-0.11412790417671204,0.017297763377428055
1779786632202085400,11.23508544921875,-0.16552451252937317,-0.12141484767198563,0.04244173318147659
1779786632212167200,11.245167236328125,-0.16265948116779327,-0.11623819172382355,0.07691582292318344
1779786632222249200,11.255249267578124,-0.1518814116716385,-0.10699835419654846,0.08992403000593185
1779786632232331300,11.265331298828125,-0.14125671982765198,-0.059725381433963776,0.0848296731710434
1779786632242413300,11.275413330078125,-0.1225149929523468,-0.027397802099585533,0.08954452723264694
1779786632252495400,11.285495361328126,-0.08981937170028687,-0.023026222363114357,0.10489285737276077
1779786632262577400,11.295577392578124,-0.055518653243780136,0.0000428768944402691,0.10454318672418594
1779786632272659200,11.3056591796875,-0.017650898545980453,0.04156182333827019,0.09232806414365768
1779786632282741200,11.3157412109375,0.01871616393327713,0.08809363842010498,0.0638655349612236
1779786632292823300,11.3258232421875,0.04626762866973877,0.15436027944087982,0.04225557669997215
1779786632302905300,11.3359052734375,0.05854533612728119,0.20534169673919678,0.020485566928982735
1779786632312987400,11.3459873046875,0.05673385411500931,0.20401811599731445,0.005657352972775698
1779786632323069400,11.3560693359375,0.05927637219429016,0.17009928822517395,-0.004885036498308182
1779786632333151200,11.366151123046874,0.05373486876487732,0.1587608903646469,-0.005036570131778717
1779786632343233300,11.3762333984375,0.0320599302649498,0.17428551614284515,-0.012622850947082043
1779786632353315300,11.3863154296875,0.010902448557317257,0.1822640746831894,-0.009577792137861252
1779786632363397400,11.3963974609375,0.0015089471125975251,0.1525123119354248,0.010332532227039337
1779786632373479400,11.4064794921875,-0.008861934766173363,0.12056662887334824,0.03316754102706909
1779786632383561500,11.4165615234375,-0.019960392266511917,0.07929668575525284,0.05752747505903244
1779786632393643300,11.426643310546876,-0.018809108063578606,0.05519667640328407,0.06710899621248245
1779786632403725000,11.43672509765625,-0.01738804578781128,0.06893778592348099,0.06294620782136917
1779786632413807000,11.44680712890625,-0.009515208192169666,0.08362565189599991,0.05047515779733658
1779786632423889200,11.45688916015625,-0.002049835165962577,0.08265546709299088,0.04139244556427002
1779786632433971200,11.46697119140625,0.007342068944126368,0.06612628698348999,0.01835743524134159
1779786632444053200,11.47705322265625,0.015213041566312313,0.05283232033252716,0.0005246427026577294
1779786632454136300,11.48713623046875,0.013487579300999641,0.034578483551740646,-0.021312478929758072
1779786632464218400,11.49721826171875,0.015925969928503036,0.03212065249681473,-0.048531316220760345
1779786632474300200,11.507300048828125,0.017426127567887306,0.03792661055922508,-0.07507264614105225
1779786632484382200,11.51738232421875,0.023720774799585342,0.03995487466454506,-0.08862360566854477
1779786632494464300,11.52746435546875,0.02875974215567112,0.0469917431473732,-0.0968029722571373
1779786632504546000,11.537546142578124,0.024024110287427902,0.056776463985443115,-0.10222357511520386
1779786632514628000,11.547628173828125,0.02576288767158985,0.06540590524673462,-0.10557063668966293
1779786632524710100,11.557710205078125,0.023912256583571434,0.08062373846769333,-0.1030195951461792
1779786632534792200,11.567792236328126,0.020787836983799934,0.10226964950561523,-0.10211731493473053
1779786632544874200,11.577874267578125,0.025706695392727852,0.12366308271884918,-0.09114216268062592
1779786632554956300,11.587956298828125,0.027227360755205154,0.1444876790046692,-0.08064451068639755
1779786632565038000,11.5980380859375,0.021501297131180763,0.14386476576328278,-0.07477304339408875
1779786632575120100,11.6081201171875,0.02160649187862873,0.132305309176445,-0.06993460655212402
1779786632585202200,11.6182021484375,0.019421635195612907,0.12161032110452652,-0.06778357177972794
1779786632595284200,11.6282841796875,0.017418405041098595,0.1244223490357399,-0.0691460445523262
1779786632605366300,11.6383662109375,0.010761301033198833,0.12565672397613525,-0.07455652207136154
1779786632615448300,11.6484482421875,0.0024831313639879227,0.11609917879104614,-0.07385078817605972
1779786632625530400,11.6585302734375,-0.0004005394293926656,0.10312052816152573,-0.0735597014427185
1779786632635612200,11.668612060546875,-0.01044252049177885,0.07932358235120773,-0.060628458857536316
1779786632645694200,11.678694091796874,-0.017227189615368843,0.049605369567871094,-0.04433311149477959
1779786632655776300,11.6887763671875,-0.020229371264576912,0.0314900167286396,-0.029766418039798737
1779786632665858300,11.6988583984375,-0.022886140272021294,0.03554760664701462,-0.019108979031443596
1779786632675940400,11.7089404296875,-0.026585271582007408,0.042511239647865295,-0.0049558766186237335
1779786632686022400,11.7190224609375,-0.02460814081132412,0.023477628827095032,0.014701981097459793
1779786632696105200,11.729105224609375,-0.020169982686638832,0.01509852521121502,0.027249198406934738
1779786632706187300,11.739187255859376,-0.0163589995354414,0.01678776927292347,0.03915992006659508
1779786632716269300,11.749269287109374,-0.016173910349607468,0.013066001236438751,0.05234948918223381
1779786632726351400,11.759351318359375,-0.006772951222956181,0.011143464595079422,0.057312026619911194
1779786632736433200,11.76943310546875,0.0003323625132907182,0.014270015992224216,0.055021706968545914
1779786632746515200,11.77951513671875,0.00452817277982831,0.010574080981314182,0.052858952432870865
1779786632756597200,11.78959716796875,0.009423862211406231,0.009736516512930393,0.046732883900403976
1779786632766679300,11.79967919921875,0.019031215459108353,0.02984444797039032,0.041963428258895874
1779786632776761300,11.80976123046875,0.02166614681482315,0.04661250859498978,0.025721874088048935
1779786632786843400,11.819843505859374,0.030232470482587814,0.06774948537349701,0.007955927401781082
1779786632796925200,11.82992529296875,0.02893604338169098,0.06946269422769547,-0.005822735372930765
1779786632807007200,11.84000732421875,0.017130782827734947,0.04680958390235901,-0.012682239525020123
1779786632817089300,11.85008935546875,0.006524478085339069,-0.009936786256730556,-0.006223008502274752
1779786632827171300,11.86017138671875,-0.0004117247008252889,-0.0638684630393982,-0.00014940333494450897
1779786632837253400,11.87025341796875,-0.006053897552192211,-0.09255363792181015,0.008019310422241688
1779786632847335400,11.88033544921875,-0.007162305526435375,-0.09309372305870056,0.013029249384999275
1779786632857417500,11.89041748046875,-0.01384124718606472,-0.058707255870103836,0.015482553280889988
1779786632867499500,11.90049951171875,-0.021379057317972183,-0.039256058633327484,0.016046078875660896
1779786632877581600,11.91058154296875,-0.022973759099841118,-0.062303587794303894,0.024538632482290268
1779786632887663600,11.92066357421875,-0.02305232174694538,-0.08702464401721954,0.032279375940561295
1779786632897745700,11.93074560546875,-0.014561099000275135,-0.08414949476718903,0.03791062906384468
1779786632907828500,11.940828369140625,0.003602457931265235,-0.06664694100618362,0.03383412957191467
1779786632917910500,11.95091064453125,0.02135615423321724,-0.037282124161720276,0.03531165048480034
1779786632927992600,11.96099267578125,0.045413289219141006,0.0032655680552124977,0.0318351611495018
1779786632938074600,11.97107470703125,0.05826596915721893,0.04231949523091316,0.018262626603245735
1779786632948156700,11.98115673828125,0.0698709636926651,0.064668208360672,0.006316751707345247
1779786632958238700,11.99123876953125,0.07133223861455917,0.05570773780345917,-0.009326123632490635
1779786632968320500,12.001320556640625,0.06387831270694733,0.0481259822845459,-0.02124882861971855
1779786632978402600,12.011402587890625,0.04995477572083473,0.03959987312555313,-0.020544955506920815
1779786632988484600,12.021484619140624,0.033847179263830185,0.028242556378245354,-0.017537448555231094
1779786632998566700,12.031566650390625,0.013931794092059135,0.017293503507971764,0.0037470676470547915
1779786633008648700,12.041648681640625,-0.010265686549246311,-0.0012175972806289792,0.02984791062772274
1779786633018730800,12.051730712890626,-0.029472138732671738,-0.005578523501753807,0.041490186005830765
1779786633028812500,12.0618125,-0.04705805703997612,-0.027234550565481186,0.051477305591106415
1779786633038894600,12.07189453125,-0.06468711793422699,-0.05579002946615219,0.05139927566051483
1779786633048976600,12.0819765625,-0.08245013654232025,-0.06682803481817245,0.04234665632247925
1779786633059058700,12.09205859375,-0.08641238510608673,-0.04814356192946434,0.03815111517906189
1779786633069140700,12.102140625,-0.08787339925765991,-0.027756797149777412,0.03452042490243912
1779786633079222800,12.112222900390625,-0.08842280507087708,-0.014123808592557907,0.04849616438150406
1779786633089304600,12.1223046875,-0.08845263719558716,-0.010299775749444962,0.05603264272212982
1779786633099387600,12.1323876953125,-0.08390848338603973,-0.03403999283909798,0.058387674391269684
1779786633109469700,12.1424697265625,-0.06764882057905197,-0.05980261415243149,0.038534607738256454
1779786633119551700,12.1525517578125,-0.057076334953308105,-0.056946638971567154,0.0024402544368058443
1779786633129633800,12.1626337890625,-0.047509197145700455,-0.03392015025019646,-0.03123541735112667
1779786633139715600,12.172715576171875,-0.04418983310461044,-0.03353132680058479,-0.05915253609418869
1779786633149797600,12.182797607421875,-0.04067552462220192,-0.04809882119297981,-0.06984779238700867
1779786633159879700,12.192879638671876,-0.03382081538438797,-0.06525436788797379,-0.07399992644786835
1779786633169961700,12.202961669921875,-0.01708231493830681,-0.07388833910226822,-0.06504478305578232
1779786633180043800,12.213043701171875,0.0005797701887786388,-0.08587868511676788,-0.04462818801403046
1779786633190125800,12.223125732421876,0.022305039688944817,-0.10297218710184097,-0.01912975311279297
1779786633200207600,12.23320751953125,0.03309909626841545,-0.11402830481529236,-0.013437511399388313
