time,seconds_elapsed,z,y,x
1779786621036473600,0.0694736328125,-18.37195587158203,29.989418029785156,-21.636062622070312
1779786621046555400,0.079555419921875,-18.735008239746094,29.773048400878906,-21.467811584472656
1779786621056636700,0.08963671875,-18.671470642089844,29.70386505126953,-21.449951171875
1779786621066718500,0.099718505859375,-18.70587921142578,29.753585815429688,-21.643844604492188
1779786621076800500,0.109800537109375,-18.83989715576172,29.8267822265625,-21.810867309570312
1779786621086881300,0.11988134765625,-19.20317840576172,29.709373474121094,-21.920074462890625
1779786621096963300,0.12996337890625,-19.579429626464844,29.65380859375,-21.94951629638672
1779786621107045400,0.14004541015625,-19.45159149169922,29.79772186279297,-21.741546630859375
1779786621117126400,0.15012646484375,-18.96314239501953,29.877037048339844,-21.87207794189453
1779786621127208400,0.16020849609375,-18.87651824951172,29.625633239746094,-21.959739685058594
1779786621137290500,0.17029052734375,-19.20256805419922,29.70831298828125,-22.08660888671875
1779786621147371500,0.18037158203125,-19.15892791748047,29.56201171875,-22.28917694091797
1779786621157453600,0.19045361328125,-19.241294860839844,29.422119140625,-22.113525390625
1779786621167534600,0.20053466796875,-18.948448181152344,29.30988311767578,-21.8609619140625
1779786621177616600,0.21061669921875,-19.317787170410156,29.32770538330078,-21.835487365722656
1779786621187698700,0.22069873046875,-19.471412658691406,29.351272583007812,-21.562698364257812
1779786621197779500,0.230779541015625,-19.615211486816406,29.453765869140625,-21.58818817138672
1779786621207861500,0.240861572265625,-19.35216522216797,29.237342834472656,-21.651748657226562
1779786621217943600,0.250943603515625,-19.34058380126953,29.319725036621094,-21.792510986328125
1779786621228024600,0.261024658203125,-19.359718322753906,29.569190979003906,-21.878395080566406
1779786621238106400,0.2711064453125,-19.45050811767578,29.38512420654297,-21.802772521972656
1779786621248188400,0.2811884765625,-19.57318878173828,29.266868591308594,-21.896865844726562
1779786621258269400,0.29126953125,-18.965248107910156,29.169174194335938,-22.005630493164062
1779786621268351500,0.3013515625,-18.965248107910156,29.169174194335938,-22.005630493164062
1779786621278433500,0.31143359375,-19.17388153076172,29.21526336669922,-21.963287353515625
1779786621288514600,0.3215146484375,-19.03520965576172,29.14568328857422,-22.087425231933594
1779786621298596600,0.3315966796875,-19.39275360107422,29.012184143066406,-22.10003662109375
1779786621308678700,0.3416787109375,-18.761253356933594,28.972129821777344,-22.49597930908203
1779786621318759400,0.351759521484375,-18.645057678222656,28.82769012451172,-22.499412536621094
1779786621328841500,0.361841552734375,-19.05327606201172,28.62146759033203,-22.708152770996094
1779786621338923500,0.371923583984375,-19.06664276123047,28.424400329589844,-22.32806396484375
1779786621349004500,0.382004638671875,-19.26294708251953,28.492515563964844,-22.26239013671875
1779786621359086600,0.392086669921875,-19.383140563964844,28.511795043945312,-22.191635131835938
1779786621369168600,0.402168701171875,-19.432533264160156,28.334739685058594,-21.978981018066406
1779786621379249700,0.412249755859375,-19.39105987548828,28.490829467773438,-22.023162841796875
1779786621389331500,0.42233154296875,-19.503395080566406,28.550872802734375,-22.205490112304688
1779786621399413500,0.43241357421875,-19.24962615966797,28.48157501220703,-22.241012573242188
1779786621409494500,0.44249462890625,-19.27983856201172,28.599388122558594,-22.392616271972656
1779786621419576300,0.452576416015625,-19.209022521972656,28.474014282226562,-22.163726806640625
1779786621429658400,0.462658447265625,-19.48560333251953,28.512588500976562,-22.429611206054688
1779786621439739400,0.472739501953125,-19.251853942871094,28.493492126464844,-22.201248168945312
1779786621449821400,0.482821533203125,-19.09246063232422,28.241943359375,-22.01854705810547
1779786621459903500,0.492903564453125,-19.448143005371094,28.451866149902344,-22.304901123046875
1779786621469984500,0.502984619140625,-19.481346130371094,28.80914306640625,-22.176780700683594
1779786621480066600,0.513066650390625,-19.52234649658203,28.64978790283203,-22.086990356445312
1779786621490148600,0.523148681640625,-19.32703399658203,28.7178955078125,-21.887481689453125
1779786621500229600,0.533229736328125,-19.53643035888672,28.81574249267578,-21.966346740722656
1779786621510311700,0.543311767578125,-19.31511688232422,28.72600555419922,-22.174705505371094
1779786621520393700,0.553393798828125,-18.894508361816406,28.51091766357422,-22.312965393066406
1779786621530474500,0.563474609375,-18.94239044189453,28.61376953125,-22.310142517089844
1779786621540556500,0.573556640625,-18.96674346923828,28.298812866210938,-22.234344482421875
1779786621550638300,0.583638427734375,-18.68824005126953,28.31047821044922,-22.05157470703125
1779786621560719600,0.5937197265625,-18.661033630371094,28.244476318359375,-22.230499267578125
1779786621570801400,0.603801513671875,-18.97148895263672,28.273635864257812,-22.397117614746094
1779786621580882400,0.61388232421875,-18.42223358154297,28.539466857910156,-22.463653564453125
1779786621590964500,0.623964599609375,-18.824073791503906,28.554336547851562,-22.586402893066406
1779786621601046500,0.634046630859375,-18.73522186279297,28.320327758789062,-22.40997314453125
1779786621611127600,0.64412744140625,-18.572364807128906,28.188575744628906,-22.207412719726562
1779786621621209600,0.654209716796875,-18.91069793701172,28.015121459960938,-22.344703674316406
1779786621631291600,0.664291748046875,-19.155494689941406,28.166725158691406,-22.58281707763672
1779786621641372400,0.674372314453125,-18.79534149169922,28.371910095214844,-22.656036376953125
1779786621651454500,0.684454345703125,-18.91303253173828,28.505706787109375,-22.764739990234375
1779786621661536500,0.69453662109375,-18.88573455810547,28.438720703125,-22.76152801513672
1779786621671617500,0.704617431640625,-18.98969268798828,28.53502655029297,-22.374725341796875
1779786621681699600,0.714699462890625,-19.113731384277344,28.5260009765625,-22.244178771972656
1779786621691781600,0.72478173828125,-19.279884338378906,28.424911499023438,-22.021575927734375
1779786621701862700,0.734862548828125,-19.19690704345703,28.513412475585938,-22.067520141601562
1779786621711944700,0.74494482421875,-19.24079132080078,28.712059020996094,-21.82770538330078
1779786621722026500,0.755026611328125,-19.46588897705078,28.927833557128906,-21.656951904296875
1779786621732107500,0.765107421875,-19.62163543701172,29.15819549560547,-21.383407592773438
1779786621742189300,0.775189208984375,-19.27265167236328,29.06108856201172,-21.25305938720703
1779786621752271400,0.785271240234375,-19.286705017089844,29.13915252685547,-21.327377319335938
1779786621762352400,0.795352294921875,-19.36009979248047,29.202484130859375,-21.13164520263672
1779786621772434400,0.805434326171875,-19.294761657714844,29.241493225097656,-21.060226440429688
1779786621782516500,0.8155166015625,-19.293113708496094,29.321945190429688,-20.852890014648438
1779786621792597500,0.825597412109375,-19.09215545654297,29.33855438232422,-20.88818359375
1779786621802679600,0.835679443359375,-19.502174377441406,29.202117919921875,-20.941566467285156
1779786621812761600,0.84576171875,-18.92229461669922,29.369041442871094,-20.894248962402344
1779786621822842600,0.855842529296875,-18.677345275878906,29.40350341796875,-20.81854248046875
1779786621832924700,0.865924560546875,-18.707298278808594,29.47510528564453,-20.9420166015625
1779786621843007000,0.876007080078125,-18.581626892089844,29.261634826660156,-21.128799438476562
1779786621853088300,0.886088134765625,-18.690635681152344,28.8577880859375,-21.60022735595703
1779786621863170000,0.896170166015625,-18.58287811279297,28.9261474609375,-21.480224609375
1779786621873252000,0.906252197265625,-18.580909729003906,28.94347381591797,-21.28559112548828
1779786621883333000,0.9163330078125,-18.72710418701172,28.966026306152344,-21.153778076171875
1779786621893415200,0.926415283203125,-18.59101104736328,29.12641143798828,-21.20703887939453
1779786621903496000,0.936495849609375,-19.014076232910156,28.848007202148438,-21.307022094726562
1779786621913578000,0.946577880859375,-19.23834991455078,28.906082153320312,-21.41315460205078
1779786621923660000,0.956659912109375,-19.653404235839844,28.813255310058594,-21.269683837890625
1779786621933741000,0.966740966796875,-19.839988708496094,28.824630737304688,-21.368385314941406
1779786621943823000,0.976822998046875,-19.90039825439453,29.163467407226562,-21.051475524902344
1779786621953905200,0.9869052734375,-20.31385040283203,28.978073120117188,-21.00334930419922
1779786621963986200,0.996986083984375,-20.08448028564453,28.97882843017578,-20.71015167236328
1779786621974068200,1.007068115234375,-20.287208557128906,29.01111602783203,-20.878173828125
1779786621984150300,1.017150390625,-20.371910095214844,29.09351348876953,-20.570831298828125
1779786621994231300,1.027231201171875,-20.913856506347656,29.08727264404297,-20.178268432617188
1779786622004313300,1.037313232421875,-21.223472595214844,29.001800537109375,-19.819122314453125
1779786622014395100,1.04739501953125,-21.09131622314453,28.87067413330078,-19.556541442871094
1779786622024476200,1.05747607421875,-21.27594757080078,28.90813446044922,-19.679000854492188
1779786622034558000,1.067557861328125,-21.360084533691406,28.753082275390625,-19.507705688476562
1779786622044640000,1.077639892578125,-21.534324645996094,28.915199279785156,-19.442649841308594
1779786622054721000,1.087720947265625,-21.28699493408203,28.811233520507812,-19.232711791992188
1779786622064803000,1.097802978515625,-21.375389099121094,28.986045837402344,-19.691070556640625
1779786622074885000,1.107885009765625,-21.502357482910156,28.794517517089844,-19.55431365966797
1779786622084966100,1.117966064453125,-21.30596160888672,28.80095672607422,-19.478485107421875
1779786622095048200,1.128048095703125,-21.19225311279297,28.8597412109375,-19.315696716308594
1779786622105130200,1.138130126953125,-21.145179748535156,29.114517211914062,-19.447959899902344
1779786622115211300,1.148211181640625,-21.040016174316406,29.147315979003906,-19.477012634277344
1779786622125293300,1.158293212890625,-21.229164123535156,29.031715393066406,-19.18621826171875
1779786622135374000,1.1683740234375,-21.172340393066406,28.9815673828125,-19.45612335205078
1779786622145456000,1.1784560546875,-20.954246520996094,29.064979553222656,-19.297508239746094
1779786622155538200,1.1885380859375,-21.270301818847656,28.841400146484375,-19.277976989746094
1779786622165619200,1.198619140625,-21.59185028076172,28.71355438232422,-19.395660400390625
1779786622175701200,1.208701171875,-21.313072204589844,28.80207061767578,-19.24748992919922
1779786622185783000,1.218782958984375,-21.53009796142578,29.012062072753906,-18.99742889404297
1779786622195864300,1.2288642578125,-21.67211151123047,28.974815368652344,-19.09758758544922
1779786622205946000,1.238946044921875,-21.873802185058594,28.874282836914062,-19.304046630859375
1779786622216028200,1.249028076171875,-22.02440643310547,29.038528442382812,-19.161911010742188
1779786622226109000,1.25910888671875,-21.697898864746094,28.963401794433594,-19.071731567382812
1779786622236191000,1.26919091796875,-22.08843231201172,28.676345825195312,-19.064315795898438
1779786622246273000,1.27927294921875,-21.92778778076172,28.607025146484375,-19.03050994873047
1779786622256354000,1.28935400390625,-21.681297302246094,28.798561096191406,-18.78058624267578
1779786622266436000,1.29943603515625,-21.44329071044922,29.005386352539062,-18.792579650878906
1779786622276518100,1.30951806640625,-21.528953552246094,29.026527404785156,-18.50751495361328
1779786622286599200,1.31959912109375,-21.42383575439453,28.930801391601562,-18.536346435546875
1779786622296681200,1.32968115234375,-21.29894256591797,28.94043731689453,-18.542396545410156
1779786622306763300,1.33976318359375,-21.51140594482422,29.02008056640625,-18.838905334472656
1779786622316844300,1.34984423828125,-21.32842254638672,28.85234832763672,-18.806045532226562
1779786622326926300,1.35992626953125,-21.02965545654297,29.029212951660156,-19.22022247314453
1779786622337008000,1.370008056640625,-20.91645050048828,28.97869110107422,-19.194740295410156
1779786622347089200,1.380089111328125,-20.64177703857422,29.325286865234375,-19.208656311035156
1779786622357171000,1.3901708984375,-20.17064666748047,29.301002502441406,-19.55377197265625
1779786622367253000,1.4002529296875,-20.013084411621094,29.19019317626953,-19.57830810546875
1779786622377334000,1.410333984375,-19.806175231933594,29.347129821777344,-19.77404022216797
1779786622387416000,1.420416015625,-19.33086395263672,29.152320861816406,-19.7364501953125
1779786622397497000,1.4304970703125,-19.156715393066406,29.21154022216797,-19.90283966064453
1779786622407579100,1.4405791015625,-19.272865295410156,28.96044921875,-19.955101013183594
1779786622417661200,1.4506611328125,-19.10222625732422,29.200660705566406,-19.933670043945312
1779786622427742200,1.4607421875,-19.350547790527344,29.043113708496094,-19.757400512695312
1779786622437824300,1.47082421875,-19.783851623535156,29.03582000732422,-19.74298858642578
1779786622447906000,1.480906005859375,-19.799537658691406,29.196990966796875,-19.648941040039062
1779786622457987000,1.490987060546875,-20.19727325439453,29.33287811279297,-19.51666259765625
1779786622468069000,1.501069091796875,-20.53461456298828,29.521408081054688,-19.21460723876953
1779786622478151200,1.511151123046875,-20.33472442626953,29.878456115722656,-18.734634399414062
1779786622488232200,1.521232177734375,-20.554161071777344,29.810134887695312,-18.185546875
1779786622498314200,1.531314208984375,-21.08061981201172,30.059791564941406,-17.333595275878906
1779786622508396000,1.54139599609375,-21.31806182861328,30.211265563964844,-16.84052276611328
1779786622518477300,1.551477294921875,-21.672584533691406,30.3359375,-16.136810302734375
1779786622528559000,1.56155908203125,-21.996116638183594,30.736785888671875,-15.543380737304688
1779786622538641200,1.57164111328125,-21.98303985595703,31.14238739013672,-15.141258239746094
1779786622548722000,1.581721923828125,-22.112831115722656,31.469497680664062,-14.483848571777344
1779786622558804000,1.591803955078125,-21.92768096923828,31.730186462402344,-13.592369079589844
1779786622568886000,1.601885986328125,-22.10907745361328,31.784385681152344,-12.998313903808594
1779786622578967000,1.611967041015625,-22.35051727294922,32.07134246826172,-12.354965209960938
1779786622589049000,1.622049072265625,-22.042991638183594,32.33796691894531,-11.446098327636719
1779786622599131100,1.632131103515625,-21.594276428222656,33.030906677246094,-10.261772155761719
1779786622609212200,1.642212158203125,-21.32416534423828,33.63163757324219,-9.1256103515625
1779786622619294200,1.652294189453125,-20.482765197753906,34.22328186035156,-7.924690246582031
1779786622629375200,1.662375244140625,-19.96637725830078,34.7662353515625,-6.751914978027344
1779786622639457300,1.672457275390625,-19.63353729248047,35.38695526123047,-5.617767333984375
1779786622649539300,1.682539306640625,-19.261817932128906,35.95844268798828,-4.677497863769531
1779786622659620000,1.6926201171875,-18.517051696777344,36.511695861816406,-3.5402069091796875
1779786622669702100,1.7027021484375,-18.125572204589844,36.759521484375,-2.8227081298828125
1779786622679784000,1.712783935546875,-17.25853729248047,37.20714569091797,-2.033721923828125
1779786622689865200,1.722865234375,-16.761024475097656,37.667022705078125,-1.1536941528320312
1779786622699947000,1.732947021484375,-15.988853454589844,38.04693603515625,0.135711669921875
1779786622710029000,1.743029052734375,-15.113533020019531,38.456268310546875,1.0827484130859375
1779786622720110000,1.753110107421875,-14.439247131347656,38.764617919921875,2.0898895263671875
1779786622730192100,1.763192138671875,-14.002418518066406,38.97538757324219,2.9375152587890625
1779786622740274200,1.773274169921875,-13.343955993652344,39.28251647949219,3.8016433715820312
1779786622750355200,1.783355224609375,-12.383201599121094,39.464805603027344,4.8340911865234375
1779786622760437200,1.793437255859375,-12.393531799316406,39.655311584472656,5.682472229003906
1779786622770519000,1.80351904296875,-11.830818176269531,39.54438018798828,6.700469970703125
1779786622780600000,1.81360009765625,-11.471931457519531,39.507301330566406,7.668479919433594
1779786622790682000,1.82368212890625,-11.287925720214844,39.61113739013672,8.6759033203125
1779786622800764200,1.83376416015625,-10.493415832519531,39.13037872314453,9.341705322265625
1779786622810845200,1.84384521484375,-9.712806701660156,39.056785583496094,10.433853149414062
1779786622820927200,1.85392724609375,-9.226722717285156,39.34968566894531,11.308509826660156
1779786622831009000,1.864009033203125,-8.924034118652344,39.21233367919922,11.958694458007812
1779786622841090300,1.87409033203125,-8.946662902832031,39.046791076660156,12.596687316894531
1779786622851171600,1.884171630859375,-8.939094543457031,38.869407653808594,13.107536315917969
1779786622861253400,1.89425341796875,-8.775718688964844,38.64991760253906,13.734512329101562
1779786622871334400,1.90433447265625,-8.464134216308594,38.480224609375,14.3421630859375
1779786622881416400,1.91441650390625,-8.468818664550781,38.693092346191406,14.719078063964844
1779786622891497500,1.92449755859375,-8.245124816894531,38.27095031738281,14.848190307617188
1779786622901579300,1.934579345703125,-7.666648864746094,37.995697021484375,15.346054077148438
1779786622911661300,1.944661376953125,-7.209266662597656,37.8951416015625,15.670120239257812
1779786622921742300,1.954742431640625,-7.234138488769531,37.64861297607422,15.774566650390625
1779786622931824400,1.964824462890625,-6.989646911621094,37.62993621826172,16.079132080078125
1779786622941906400,1.974906494140625,-6.807319641113281,37.717430114746094,16.44424057006836
1779786622951987500,1.984987548828125,-7.327659606933594,37.6419677734375,16.686294555664062
1779786622962069200,1.9950693359375,-7.455329895019531,37.543312072753906,17.177494049072266
1779786622972151300,2.0051513671875,-7.522056579589844,37.33851623535156,17.407089233398438
1779786622982232300,2.015232421875,-7.517066955566406,37.20164489746094,17.54803466796875
1779786622992314400,2.025314453125,-7.596641540527344,37.137123107910156,18.154396057128906
1779786623002396400,2.035396484375,-7.447853088378906,36.872467041015625,18.199562072753906
1779786623012477400,2.0454775390625,-7.297019958496094,36.381317138671875,18.9481201171875
1779786623022559500,2.0555595703125,-7.880760192871094,36.04864501953125,19.321128845214844
1779786623032641500,2.0656416015625,-8.303062438964844,35.68834686279297,19.694854736328125
1779786623042722600,2.07572265625,-8.618629455566406,35.04425811767578,20.038589477539062
1779786623052804400,2.085804443359375,-9.592826843261719,34.63347625732422,20.244422912597656
1779786623062886400,2.095886474609375,-10.416038513183594,33.900917053222656,20.63595199584961
1779786623072967200,2.10596728515625,-11.678581237792969,33.56016540527344,20.775470733642578
1779786623083049200,2.11604931640625,-12.679405212402344,32.846221923828125,20.658985137939453
1779786623093131300,2.12613134765625,-13.829521179199219,32.288299560546875,20.503124237060547
1779786623103212300,2.13621240234375,-14.775077819824219,32.05305480957031,20.093929290771484
1779786623113294300,2.14629443359375,-15.589271545410156,31.121742248535156,20.16248321533203
1779786623123376400,2.15637646484375,-16.446754455566406,30.379478454589844,19.97234344482422
1779786623133457400,2.16645751953125,-17.884681701660156,29.809120178222656,20.159164428710938
1779786623143539500,2.17653955078125,-18.494834899902344,29.29859161376953,19.839218139648438
1779786623153621500,2.18662158203125,-19.256614685058594,28.83769989013672,19.758460998535156
1779786623163702500,2.19670263671875,-19.824546813964844,28.10205078125,19.455120086669922
1779786623173784600,2.20678466796875,-20.522621154785156,27.733016967773438,19.436695098876953
1779786623183866600,2.21686669921875,-20.600486755371094,27.31279754638672,19.405921936035156
1779786623193947400,2.226947509765625,-21.254295349121094,26.69049835205078,19.568138122558594
1779786623204029400,2.237029541015625,-21.920021057128906,26.15691375732422,19.22998809814453
1779786623214111200,2.247111328125,-22.45574188232422,25.773345947265625,19.220977783203125
1779786623224192300,2.257192138671875,-23.18706512451172,25.544845581054688,18.86374282836914
1779786623234274300,2.2672744140625,-23.725929260253906,25.376541137695312,18.421642303466797
1779786623244356400,2.2773564453125,-24.686180114746094,25.486656188964844,18.17937469482422
1779786623254437400,2.287437255859375,-24.96605682373047,25.51941680908203,17.29257583618164
1779786623264519400,2.29751953125,-24.804466247558594,25.265464782714844,17.030338287353516
1779786623274601500,2.3076015625,-24.495521545410156,25.298004150390625,16.295459747314453
1779786623284682200,2.31768212890625,-24.732398986816406,25.18677520751953,16.066734313964844
1779786623294764300,2.327764404296875,-25.542762756347656,25.231948852539062,15.790519714355469
1779786623304846300,2.337846435546875,-25.40044403076172,25.20551300048828,15.335350036621094
1779786623314927400,2.34792724609375,-25.545249938964844,24.65631866455078,15.174812316894531
1779786623325009400,2.358009521484375,-25.882896423339844,24.7178955078125,14.69073486328125
1779786623335091500,2.368091552734375,-25.93933868408203,24.787086486816406,14.135505676269531
1779786623345172500,2.37817236328125,-26.406822204589844,25.01215362548828,13.330314636230469
1779786623355254500,2.388254638671875,-26.738792419433594,24.92749786376953,13.002601623535156
1779786623365336300,2.39833642578125,-26.85095977783203,24.71642303466797,12.34765625
1779786623375417300,2.408417236328125,-26.66710662841797,24.840133666992188,11.917640686035156
1779786623385499400,2.41849951171875,-26.798118591308594,24.65557098388672,11.629539489746094
1779786623395581400,2.42858154296875,-26.859336853027344,24.551902770996094,11.504173278808594
1779786623405662200,2.438662109375,-26.92072296142578,24.68395233154297,11.216705322265625
1779786623415744300,2.448744140625,-27.05182647705078,24.615585327148438,10.97686767578125
1779786623425826300,2.458826416015625,-27.40209197998047,24.68071746826172,10.513755798339844
1779786623435907300,2.4689072265625,-27.06964874267578,24.429832458496094,10.398094177246094
1779786623445989400,2.4789892578125,-27.004417419433594,24.32317352294922,10.045860290527344
1779786623456071400,2.489071533203125,-27.04381561279297,24.657508850097656,9.405662536621094
1779786623466152400,2.49915234375,-27.68016815185547,24.73712921142578,9.143325805664062
1779786623476234500,2.509234375,-27.74889373779297,24.648025512695312,9.120292663574219
1779786623486316500,2.519316650390625,-28.186424255371094,24.702919006347656,8.777969360351562
1779786623496397600,2.5293974609375,-28.073570251464844,24.82635498046875,8.562652587890625
1779786623506479600,2.539479736328125,-28.301185607910156,24.896812438964844,8.521697998046875
1779786623516561200,2.54956103515625,-28.333290100097656,24.974105834960938,8.207786560058594
1779786623526642400,2.559642333984375,-28.061683654785156,24.829307556152344,8.02630615234375
1779786623536724200,2.56972412109375,-28.19011688232422,24.826675415039062,7.8262481689453125
1779786623546806300,2.57980615234375,-28.08934783935547,25.05596160888672,7.849052429199219
1779786623556888300,2.589888427734375,-28.37352752685547,24.99212646484375,7.803810119628906
1779786623566969300,2.59996923828125,-28.37889862060547,24.846351623535156,8.014785766601562
1779786623577051400,2.610051513671875,-28.50908660888672,24.78919219970703,7.837677001953125
1779786623587133400,2.620133544921875,-28.653541564941406,24.716232299804688,8.111366271972656
1779786623597214500,2.63021435546875,-28.61652374267578,24.544898986816406,7.821800231933594
1779786623607296500,2.640296630859375,-28.29700469970703,24.650741577148438,7.815826416015625
1779786623617378600,2.650378662109375,-28.299522399902344,24.647911071777344,7.947334289550781
1779786623627459300,2.660459228515625,-28.184837341308594,24.53570556640625,7.824974060058594
1779786623637541400,2.670541259765625,-28.418174743652344,24.450836181640625,7.8924713134765625
1779786623647623400,2.68062353515625,-28.457923889160156,24.47661590576172,8.064208984375
1779786623657704400,2.690704345703125,-28.447364807128906,24.52623748779297,7.53265380859375
1779786623667786200,2.7007861328125,-28.72113800048828,24.505126953125,7.7087860107421875
1779786623677868300,2.710868408203125,-28.53972625732422,24.64844512939453,7.64715576171875
1779786623687949300,2.72094921875,-28.65399932861328,24.678977966308594,7.6534423828125
1779786623698031400,2.73103125,-28.433555603027344,24.69530487060547,7.4071197509765625
1779786623708113400,2.741113525390625,-28.386192321777344,24.876976013183594,7.472648620605469
1779786623718194400,2.7511943359375,-28.581932067871094,24.940383911132812,7.400398254394531
1779786623728276500,2.7612763671875,-28.44849395751953,24.881019592285156,7.256561279296875
1779786623738358500,2.771358642578125,-28.483116149902344,24.808982849121094,7.245391845703125
1779786623748439300,2.781439208984375,-28.333045959472656,24.735565185546875,7.1331787109375
1779786623758521300,2.791521240234375,-28.131980895996094,24.896690368652344,7.286529541015625
1779786623768603400,2.801603271484375,-28.372413635253906,24.918060302734375,7.1915130615234375
1779786623778685400,2.811685546875,-28.424705505371094,24.759033203125,7.158843994140625
1779786623788766500,2.821766357421875,-28.591819763183594,24.7386474609375,6.935272216796875
1779786623798848500,2.8318486328125,-28.36835479736328,24.86267852783203,7.186424255371094
1779786623808930300,2.841930419921875,-28.55622100830078,24.789199829101562,6.94012451171875
1779786623819011300,2.85201123046875,-28.780113220214844,24.59644317626953,6.9524383544921875
1779786623829093400,2.86209326171875,-28.670982360839844,24.506591796875,6.83526611328125
1779786623839175400,2.872175537109375,-28.42792510986328,24.4534912109375,6.900947570800781
1779786623849256200,2.882256103515625,-28.466957092285156,24.565780639648438,6.824058532714844
1779786623859338200,2.892338134765625,-28.36516571044922,24.584754943847656,6.8593902587890625
1779786623869420300,2.902420166015625,-28.20960235595703,24.400070190429688,6.820442199707031
1779786623879501300,2.912501220703125,-28.032081604003906,24.57830047607422,6.5955047607421875
1779786623889583400,2.922583251953125,-28.019615173339844,24.903488159179688,6.8694000244140625
1779786623899665400,2.93266552734375,-28.02527618408203,25.00348663330078,6.88275146484375
1779786623909747500,2.94274755859375,-28.03253936767578,25.080703735351562,6.716346740722656
1779786623919828200,2.952828125,-27.519309997558594,24.963821411132812,6.771400451660156
1779786623929910300,2.96291015625,-27.432273864746094,24.90094757080078,6.761817932128906
1779786623939992000,2.972991943359375,-27.467185974121094,25.15052032470703,6.594657897949219
1779786623950073300,2.9830732421875,-27.430503845214844,25.251296997070312,6.5907745361328125
1779786623960155100,2.993155029296875,-27.774330139160156,25.424476623535156,6.230903625488281
1779786623970237200,3.0032373046875,-27.650352478027344,25.377655029296875,6.489158630371094
1779786623980318200,3.013318115234375,-27.557212829589844,25.338294982910156,6.626258850097656
1779786623990400300,3.023400146484375,-27.951271057128906,25.358154296875,6.84906005859375
1779786624000482300,3.033482421875,-27.986351013183594,25.28314208984375,6.8058624267578125
1779786624010564400,3.043564453125,-27.84302520751953,25.55834197998047,6.585487365722656
1779786624020645400,3.053645263671875,-27.63097381591797,25.604965209960938,6.665496826171875
1779786624030727200,3.06372705078125,-27.717491149902344,25.611419677734375,6.447593688964844
1779786624040809200,3.073809326171875,-27.179100036621094,25.542633056640625,6.679039001464844
1779786624050890200,3.08389013671875,-27.55046844482422,25.436752319335938,6.620330810546875
1779786624060972300,3.09397216796875,-27.867286682128906,25.2978515625,6.699981689453125
1779786624071054300,3.104054443359375,-28.24317169189453,25.159584045410156,6.8511810302734375
1779786624081135400,3.11413525390625,-28.05602264404297,24.979270935058594,6.979637145996094
1779786624091217200,3.124217041015625,-28.06578826904297,24.995765686035156,6.953216552734375
1779786624101299200,3.13429931640625,-27.69300079345703,25.16291046142578,6.9871673583984375
1779786624111381200,3.14438134765625,-27.795494079589844,25.17639923095703,7.096405029296875
1779786624121462300,3.154462158203125,-27.74323272705078,25.31153106689453,7.262336730957031
1779786624131544300,3.16454443359375,-27.57904815673828,25.21105194091797,7.175933837890625
1779786624141626400,3.17462646484375,-27.235084533691406,25.282249450683594,7.312538146972656
1779786624151707100,3.18470703125,-27.153465270996094,25.267066955566406,7.3132171630859375
1779786624161789200,3.1947890625,-27.24616241455078,25.479263305664062,7.2269134521484375
1779786624171871200,3.204871337890625,-27.07707977294922,25.73133087158203,6.9686737060546875
1779786624181952300,3.2149521484375,-26.997886657714844,25.900039672851562,6.9047698974609375
1779786624192034300,3.225034423828125,-26.77997589111328,25.92082977294922,6.858650207519531
1779786624202116400,3.235116455078125,-27.05847930908203,25.961875915527344,6.576271057128906
1779786624212198100,3.2451982421875,-26.96569061279297,25.92059326171875,7.0260162353515625
1779786624222279400,3.255279541015625,-27.250755310058594,25.734970092773438,7.105804443359375
1779786624232361200,3.265361328125,-27.27674102783203,25.9539794921875,6.954254150390625
1779786624242443300,3.275443359375,-27.351295471191406,25.777923583984375,7.004859924316406
1779786624252524300,3.285524169921875,-27.676307678222656,26.024627685546875,6.8402557373046875
1779786624262606000,3.295606201171875,-27.441810607910156,25.99279022216797,7.013877868652344
1779786624272688000,3.305688232421875,-27.906455993652344,25.78961944580078,7.062294006347656
1779786624282770200,3.315770263671875,-27.90314483642578,25.8465576171875,6.94305419921875
1779786624292851200,3.325851318359375,-27.868873596191406,25.851943969726562,6.910331726074219
1779786624302933200,3.335933349609375,-28.26593780517578,25.722412109375,6.583183288574219
1779786624313015300,3.346015380859375,-28.128257751464844,25.52666473388672,6.540748596191406
1779786624323096300,3.356096435546875,-28.115318298339844,25.463973999023438,6.718994140625
1779786624333178400,3.366178466796875,-27.922996520996094,25.399009704589844,6.613304138183594
1779786624343260400,3.376260498046875,-27.99292755126953,25.503204345703125,6.6153717041015625
1779786624353342200,3.38634228515625,-27.94561004638672,25.204872131347656,6.648979187011719
1779786624363423200,3.39642333984375,-28.027610778808594,25.169349670410156,6.953094482421875
1779786624373505300,3.40650537109375,-28.14971160888672,25.417877197265625,7.1335906982421875
1779786624383587300,3.41658740234375,-27.949363708496094,25.42400360107422,6.94171142578125
1779786624393668000,3.426668212890625,-27.99779510498047,25.301467895507812,6.879890441894531
1779786624403750100,3.436750244140625,-28.06079864501953,25.551483154296875,6.873817443847656
1779786624413832200,3.446832275390625,-28.066688537597656,25.71318817138672,6.7163238525390625
1779786624423914200,3.456914306640625,-28.084129333496094,25.895652770996094,6.5545501708984375
1779786624433995300,3.466995361328125,-28.040916442871094,25.972793579101562,6.705848693847656
1779786624444077300,3.477077392578125,-27.73357391357422,25.78272247314453,6.691520690917969
1779786624454159400,3.487159423828125,-28.048439025878906,25.82459259033203,6.641456604003906
1779786624464240400,3.497240478515625,-28.03528594970703,25.843345642089844,6.6406097412109375
1779786624474322400,3.507322509765625,-28.16663360595703,25.863548278808594,6.338432312011719
1779786624484404200,3.517404296875,-28.383888244628906,26.011337280273438,6.267036437988281
1779786624494486300,3.527486328125,-28.46312713623047,26.045272827148438,6.4621429443359375
1779786624504567000,3.537567138671875,-28.55023956298828,26.13983154296875,6.5362091064453125
1779786624514649000,3.547649169921875,-28.51752471923828,26.135887145996094,6.58575439453125
1779786624524731100,3.557731201171875,-28.41710662841797,26.168426513671875,6.573432922363281
1779786624534812200,3.567812255859375,-28.63396453857422,25.858169555664062,6.6043853759765625
1779786624544894200,3.577894287109375,-28.776329040527344,25.7978515625,6.645782470703125
1779786624554976300,3.587976318359375,-28.881996154785156,25.430892944335938,6.442375183105469
1779786624565058300,3.598058349609375,-28.71997833251953,25.144317626953125,6.266754150390625
1779786624575139300,3.608139404296875,-29.02716827392578,25.094894409179688,6.378959655761719
1779786624585221400,3.618221435546875,-29.473426818847656,24.94171905517578,6.369499206542969
1779786624595303400,3.628303466796875,-29.81676483154297,24.822891235351562,6.7113189697265625
1779786624605385200,3.63838525390625,-29.877601623535156,24.80309295654297,6.611015319824219
1779786624615466200,3.64846630859375,-29.71552276611328,24.485702514648438,6.4120025634765625
1779786624625548300,3.65854833984375,-29.50885772705078,24.744285583496094,6.588920593261719
1779786624635630300,3.66863037109375,-29.10411834716797,24.68505859375,6.4619293212890625
1779786624645711000,3.678711181640625,-29.09624481201172,24.772186279296875,6.6240081787109375
1779786624655793200,3.688793212890625,-29.27330780029297,24.77782440185547,6.6164398193359375
1779786624665875200,3.698875244140625,-29.40277862548828,24.6090087890625,6.720893859863281
1779786624675957200,3.708957275390625,-29.01264190673828,24.788345336914062,6.685661315917969
1779786624686038300,3.719038330078125,-29.03069305419922,24.751419067382812,6.498008728027344
1779786624696120300,3.729120361328125,-29.293296813964844,25.009994506835938,6.396553039550781
1779786624706202400,3.739202392578125,-29.064414978027344,24.968429565429688,6.548103332519531
1779786624716284200,3.7492841796875,-28.921669006347656,25.07147979736328,6.380767822265625
1779786624726365400,3.759365478515625,-28.825584411621094,25.073280334472656,6.674156188964844
1779786624736447200,3.769447265625,-28.82025909423828,25.027420043945312,6.5571746826171875
1779786624746529300,3.779529296875,-28.87914276123047,25.06243133544922,6.5501556396484375
1779786624756610000,3.789610107421875,-28.94835662841797,25.38042449951172,6.468231201171875
1779786624766692000,3.799692138671875,-29.444252014160156,25.01702880859375,6.484001159667969
1779786624776774100,3.809774169921875,-29.274818420410156,24.873153686523438,6.530570983886719
1779786624786856200,3.819856201171875,-29.647605895996094,24.822898864746094,6.47802734375
1779786624796937200,3.829937255859375,-29.352989196777344,24.7432861328125,6.3679962158203125
1779786624807019300,3.840019287109375,-29.58252716064453,24.521629333496094,6.123359680175781
1779786624817101300,3.850101318359375,-29.946754455566406,24.414901733398438,6.1356658935546875
1779786624827183400,3.860183349609375,-29.584754943847656,24.342849731445312,6.222297668457031
1779786624837264400,3.870264404296875,-29.44446563720703,24.131202697753906,6.061553955078125
1779786624847346700,3.8803466796875,-29.762474060058594,24.218978881835938,6.138458251953125
1779786624857428700,3.8904287109375,-30.08837127685547,24.33428955078125,6.324928283691406
1779786624867510800,3.9005107421875,-30.07001495361328,24.236534118652344,6.3314361572265625
1779786624877591800,3.910591796875,-29.83234405517578,24.350997924804688,6.314666748046875
1779786624887673900,3.920673828125,-29.596763610839844,24.379905700683594,6.2075042724609375
1779786624897756000,3.930755859375,-29.464637756347656,24.353683471679688,6.071052551269531
1779786624907838000,3.940837890625,-29.43482208251953,24.422462463378906,6.0417022705078125
1779786624917918700,3.950918701171875,-29.38465118408203,24.422813415527344,6.161277770996094
1779786624928000800,3.961000732421875,-29.340187072753906,24.519264221191406,6.201881408691406
1779786624938082800,3.971082763671875,-29.15473175048828,24.69025421142578,6.254112243652344
1779786624948163800,3.981163818359375,-28.932838439941406,24.77228546142578,6.1092376708984375
1779786624958245600,3.99124560546875,-29.199485778808594,24.9749755859375,6.049110412597656
1779786624968327700,4.00132763671875,-29.00714874267578,24.90984344482422,5.869819641113281
1779786624978409700,4.01140966796875,-29.00713348388672,24.91370391845703,6.234367370605469
1779786624988490800,4.02149072265625,-29.32837677001953,24.90032958984375,5.7968597412109375
1779786624998572800,4.03157275390625,-29.548927307128906,25.059303283691406,6.074211120605469
1779786625008654800,4.04165478515625,-29.82439422607422,24.996810913085938,5.9964599609375
1779786625018737000,4.05173681640625,-29.900840759277344,25.087081909179688,5.995719909667969
1779786625028817700,4.061817626953125,-30.08380889892578,25.065834045410156,6.0941619873046875
1779786625038899700,4.071899658203125,-30.08818817138672,25.177146911621094,6.1379241943359375
1779786625048981800,4.081981689453125,-30.18596649169922,25.037803649902344,6.1156005859375
1779786625059063600,4.0920634765625,-30.275306701660156,24.728790283203125,6.2508087158203125
1779786625069144800,4.102144775390625,-30.023475646972656,24.673744201660156,6.2160491943359375
1779786625079226600,4.1122265625,-29.989402770996094,24.52367401123047,5.973060607910156
1779786625089308700,4.12230859375,-30.102333068847656,24.6483154296875,6.060417175292969
1779786625099390700,4.132390625,-30.144432067871094,24.551223754882812,6.225425720214844
1779786625109471700,4.1424716796875,-30.218162536621094,24.459793090820312,6.200828552246094
1779786625119553800,4.1525537109375,-30.19182586669922,24.39130401611328,6.347198486328125
1779786625129635800,4.1626357421875,-30.27619171142578,24.377777099609375,6.557090759277344
1779786625139718000,4.1727177734375,-30.02074432373047,24.486404418945312,6.601829528808594
1779786625149799000,4.182798828125,-29.848777770996094,24.566558837890625,6.3875732421875
1779786625159881000,4.192880859375,-30.16887664794922,24.73381805419922,6.463264465332031
1779786625169962800,4.202962646484375,-29.858741760253906,24.774261474609375,6.674232482910156
1779786625180044500,4.21304443359375,-29.81981658935547,24.72802734375,6.874565124511719
1779786625190125800,4.223125732421875,-29.57190704345703,24.87706756591797,6.9550323486328125
1779786625200207600,4.23320751953125,-29.35199737548828,24.85938262939453,6.459434509277344
1779786625210289700,4.24328955078125,-29.18749237060547,25.10089111328125,6.362884521484375
1779786625220371700,4.253371826171875,-29.223838806152344,25.18743896484375,6.521659851074219
1779786625230452700,4.26345263671875,-29.430870056152344,25.095596313476562,6.538215637207031
1779786625240534800,4.27353466796875,-29.621376037597656,25.17139434814453,6.643440246582031
1779786625250616800,4.283616943359375,-29.82141876220703,25.302902221679688,6.419349670410156
1779786625260699000,4.293698974609375,-30.106834411621094,25.327552795410156,6.5228271484375
1779786625270780000,4.30377978515625,-29.876609802246094,25.22315216064453,6.618560791015625
1779786625280862000,4.313862060546875,-30.06609344482422,25.26628875732422,6.555290222167969
1779786625290943700,4.32394384765625,-30.23302459716797,25.25389862060547,6.521453857421875
1779786625301025800,4.33402587890625,-29.965370178222656,25.24896240234375,6.49468994140625
1779786625311106600,4.3441064453125,-30.08550262451172,25.07135009765625,6.5385284423828125
1779786625321188600,4.354188720703125,-29.915504455566406,24.76642608642578,6.4531097412109375
1779786625331270700,4.364270751953125,-30.40569305419922,24.8206787109375,6.531898498535156
1779786625341352700,4.374352783203125,-30.41077423095703,24.57044219970703,6.447257995605469
1779786625351433700,4.384433837890625,-30.32909393310547,24.687759399414062,6.559852600097656
1779786625361515800,4.394515869140625,-30.611900329589844,24.524307250976562,6.8481903076171875
1779786625371597800,4.404597900390625,-30.58068084716797,24.834808349609375,6.961662292480469
1779786625381679900,4.414679931640625,-30.27111053466797,24.641380310058594,7.302177429199219
1779786625391761000,4.424760986328125,-30.498924255371094,24.49456787109375,7.195869445800781
1779786625401843000,4.434843017578125,-30.43128204345703,24.52460479736328,7.1111907958984375
1779786625411924700,4.4449248046875,-30.360313415527344,24.735694885253906,7.000358581542969
1779786625422006800,4.4550068359375,-30.324119567871094,24.725997924804688,7.0259857177734375
1779786625432087600,4.465087646484375,-30.100975036621094,24.54961395263672,7.102012634277344
1779786625442169600,4.475169677734375,-30.03418731689453,24.569862365722656,7.162391662597656
1779786625452251600,4.485251708984375,-30.14142608642578,24.809524536132812,7.297950744628906
1779786625462333700,4.495333740234375,-29.998146057128906,24.93437957763672,7.1758575439453125
1779786625472415700,4.505415771484375,-30.22649383544922,24.861328125,7.305694580078125
1779786625482496800,4.515496826171875,-30.27202606201172,24.93651580810547,7.067390441894531
1779786625492578800,4.525578857421875,-30.12065887451172,25.140274047851562,7.1977081298828125
1779786625502660900,4.535660888671875,-30.26842498779297,25.04315948486328,7.18402099609375
1779786625512742700,4.54574267578125,-30.38188934326172,24.903907775878906,7.236747741699219
1779786625522824000,4.555823974609375,-30.63860321044922,24.831993103027344,6.917625427246094
1779786625532905700,4.56590576171875,-30.702980041503906,24.861610412597656,7.351837158203125
1779786625542987800,4.57598779296875,-30.741127014160156,24.90862274169922,7.222373962402344
1779786625553069800,4.58606982421875,-30.58446502685547,24.9637451171875,7.425926208496094
1779786625563150600,4.596150634765625,-30.786781311035156,24.75836944580078,7.356666564941406
1779786625573232600,4.606232666015625,-31.124900817871094,24.450836181640625,7.410392761230469
1779786625583314700,4.616314697265625,-31.211509704589844,24.30425262451172,7.4521942138671875
1779786625593396700,4.626396728515625,-31.381431579589844,24.15746307373047,7.314216613769531
1779786625603477800,4.636477783203125,-31.177879333496094,24.218170166015625,7.32745361328125
1779786625613559800,4.646559814453125,-31.27471160888672,24.176795959472656,7.476982116699219
1779786625623641900,4.656641845703125,-31.132362365722656,23.92009735107422,7.685829162597656
1779786625633723600,4.6667236328125,-31.009010314941406,24.07390594482422,7.7956390380859375
1779786625643805700,4.6768056640625,-30.910194396972656,23.849964141845703,7.8033905029296875
1779786625653886700,4.68688671875,-30.76848602294922,23.7745361328125,8.046905517578125
1779786625663968800,4.69696875,-30.539756774902344,23.962013244628906,7.886405944824219
1779786625674050800,4.70705078125,-30.342674255371094,24.0067138671875,7.851593017578125
1779786625684132900,4.7171328125,-30.39580535888672,23.99517822265625,8.102897644042969
1779786625694214000,4.7272138671875,-30.30469512939453,24.246360778808594,8.0645751953125
1779786625704296000,4.7372958984375,-30.55670928955078,24.095848083496094,8.039291381835938
1779786625714378000,4.7473779296875,-30.808555603027344,24.173004150390625,7.86151123046875
1779786625724459800,4.757459716796875,-30.60242462158203,24.2532958984375,7.769073486328125
1779786625734541600,4.76754150390625,-30.75347137451172,24.36486053466797,7.782585144042969
1779786625744622600,4.77762255859375,-30.849143981933594,24.301406860351562,7.489082336425781
1779786625754704600,4.78770458984375,-30.819862365722656,24.567710876464844,7.5725860595703125
1779786625764786700,4.79778662109375,-30.670677185058594,24.191078186035156,7.961334228515625
1779786625774868700,4.80786865234375,-30.89337921142578,24.273025512695312,8.216659545898438
1779786625784949800,4.81794970703125,-30.969261169433594,24.173004150390625,8.193199157714844
1779786625795031800,4.82803173828125,-30.94867706298828,24.29913330078125,8.197624206542969
1779786625805113900,4.83811376953125,-31.38323211669922,24.384010314941406,8.158592224121094
1779786625815196000,4.84819580078125,-31.384010314941406,24.520187377929688,8.229026794433594
1779786625825277700,4.858277587890625,-31.349632263183594,24.445236206054688,7.9114532470703125
1779786625835359000,4.86835888671875,-31.33995819091797,23.87771987915039,8.185005187988281
1779786625845440800,4.878440673828125,-31.665794372558594,23.601417541503906,8.027175903320312
1779786625855523000,4.888523193359375,-31.73229217529297,23.743881225585938,8.39300537109375
1779786625865605000,4.898605224609375,-32.11768341064453,23.63434600830078,8.405769348144531
1779786625875686000,4.908685791015625,-32.181175231933594,23.803401947021484,8.330741882324219
1779786625885768000,4.918767822265625,-31.78260040283203,23.62469482421875,8.380615234375
1779786625895850000,4.92885009765625,-31.305015563964844,23.586811065673828,8.300559997558594
1779786625905932000,4.93893212890625,-31.35175323486328,23.70859146118164,8.405525207519531
1779786625916014000,4.94901416015625,-31.23755645751953,23.83228302001953,8.611473083496094
1779786625926095000,4.95909521484375,-30.96619415283203,23.95135498046875,8.532882690429688
1779786625936177000,4.969177001953125,-30.83252716064453,23.94171142578125,8.6578369140625
1779786625946259000,4.979259033203125,-31.182518005371094,23.811283111572266,8.354766845703125
1779786625956341000,4.989341064453125,-31.293617248535156,24.023666381835938,8.321601867675781
1779786625966423000,4.999423095703125,-31.242164611816406,24.121566772460938,8.082435607910156
1779786625976504000,5.009504150390625,-30.63977813720703,24.294479370117188,8.0020751953125
1779786625986586000,5.019586181640625,-30.887718200683594,24.25110626220703,8.139007568359375
1779786625996668200,5.029668212890625,-30.893531799316406,24.330589294433594,8.077629089355469
1779786626006750200,5.039750244140625,-31.18378448486328,24.29051971435547,7.728057861328125
1779786626016831000,5.0498310546875,-31.31841278076172,24.316314697265625,7.683441162109375
1779786626026913000,5.0599130859375,-31.35198211669922,24.3284912109375,7.550262451171875
1779786626036994800,5.069994873046875,-31.39728546142578,24.512222290039062,7.81866455078125
1779786626047076900,5.080076904296875,-31.360328674316406,24.360504150390625,7.591522216796875
1779786626057159000,5.090158935546875,-31.91027069091797,24.29437255859375,7.713050842285156
1779786626067240000,5.100239990234375,-31.747901916503906,24.194107055664062,7.85430908203125
1779786626077322000,5.110322021484375,-31.77606964111328,24.29449462890625,7.845710754394531
1779786626087404000,5.120404052734375,-31.908424377441406,24.456024169921875,7.8602142333984375
1779786626097486000,5.130486083984375,-31.79521942138672,24.353919982910156,7.641456604003906
1779786626107568000,5.140568115234375,-32.018409729003906,24.43531036376953,7.594940185546875
1779786626117649200,5.150649169921875,-32.17810821533203,24.236618041992188,7.547752380371094
1779786626127731200,5.160731201171875,-31.973289489746094,24.06165313720703,7.730865478515625
1779786626137813000,5.17081298828125,-32.06855010986328,23.86620330810547,7.7366943359375
1779786626147895000,5.18089501953125,-32.09357452392578,23.83477783203125,7.6549530029296875
1779786626157977000,5.19097705078125,-31.96619415283203,23.684295654296875,7.817619323730469
1779786626168057900,5.201057861328125,-32.20252227783203,23.953052520751953,7.777915954589844
1779786626178140000,5.211139892578125,-31.54155731201172,23.841995239257812,7.8827056884765625
1779786626188222000,5.221221923828125,-31.33904266357422,23.986766815185547,7.828758239746094
1779786626198304000,5.231303955078125,-31.36127471923828,24.101348876953125,8.0089111328125
1779786626208386000,5.241385986328125,-31.08985137939453,24.40997314453125,7.8657684326171875
1779786626218467000,5.251467041015625,-31.19939422607422,24.248008728027344,7.905830383300781
1779786626228549000,5.261549072265625,-31.25165557861328,24.156219482421875,7.708641052246094
1779786626238631000,5.271630859375,-31.30530548095703,24.361000061035156,7.440589904785156
1779786626248713000,5.281712890625,-31.16790008544922,24.43927001953125,7.533973693847656
1779786626258794000,5.2917939453125,-31.36638641357422,24.529930114746094,7.595970153808594
1779786626268876000,5.3018759765625,-31.26714324951172,24.545944213867188,7.620719909667969
1779786626278958000,5.3119580078125,-30.94257354736328,24.593528747558594,7.269157409667969
1779786626289040100,5.3220400390625,-31.295387268066406,24.603439331054688,7.185035705566406
1779786626299122200,5.3321220703125,-31.08953094482422,24.73412322998047,7.010185241699219
1779786626309203000,5.342202880859375,-31.29065704345703,24.732879638671875,6.9834136962890625
1779786626319285000,5.352284912109375,-31.59540557861328,24.59636688232422,6.959465026855469
1779786626329367000,5.362366943359375,-31.47515106201172,24.483383178710938,6.832237243652344
1779786626339448800,5.37244873046875,-31.69275665283203,24.454811096191406,7.092979431152344
1779786626349531000,5.38253076171875,-31.97997283935547,24.647743225097656,7.190223693847656
1779786626359613000,5.392613037109375,-31.80107879638672,24.702301025390625,7.30596923828125
1779786626369694000,5.40269384765625,-31.78179168701172,24.784271240234375,7.018241882324219
1779786626379776000,5.41277587890625,-31.555946350097656,24.627578735351562,6.9984130859375
1779786626389858000,5.422858154296875,-31.767982482910156,24.461746215820312,6.73907470703125
1779786626399940000,5.432940185546875,-32.063987731933594,24.253799438476562,7.011497497558594
1779786626410022100,5.443022216796875,-32.038536071777344,24.262176513671875,6.958000183105469
1779786626420103200,5.453103271484375,-31.82939910888672,24.129554748535156,6.763648986816406
1779786626430185000,5.46318505859375,-32.01335906982422,24.075157165527344,6.922210693359375
1779786626440267000,5.47326708984375,-32.075950622558594,24.06694793701172,6.9442291259765625
1779786626450349000,5.48334912109375,-31.89019012451172,24.07915496826172,7.1195831298828125
1779786626460431000,5.49343115234375,-31.80034637451172,24.20020294189453,7.052223205566406
1779786626470511900,5.503511962890625,-32.167884826660156,24.184829711914062,7.259208679199219
1779786626480594000,5.513593994140625,-31.777854919433594,24.29662322998047,7.2757720947265625
1779786626490676000,5.523676025390625,-31.666481018066406,24.484397888183594,7.3028106689453125
1779786626500758000,5.533758056640625,-31.732139587402344,24.404296875,6.984840393066406
1779786626510840000,5.543840087890625,-31.44782257080078,24.683120727539062,7.009162902832031
1779786626520921000,5.553921142578125,-31.37940216064453,24.383865356445312,6.859870910644531
1779786626531003000,5.5640029296875,-31.54589080810547,24.579940795898438,7.050254821777344
1779786626541085000,5.5740849609375,-31.54088592529297,24.712890625,6.990486145019531
1779786626551167000,5.5841669921875,-31.524864196777344,24.91156768798828,6.925987243652344
1779786626561249000,5.5942490234375,-31.64788055419922,24.86858367919922,6.5396575927734375
1779786626571330000,5.604330078125,-31.349159240722656,24.974143981933594,6.43695068359375
1779786626581412000,5.614412109375,-31.33434295654297,24.98773193359375,6.488166809082031
1779786626591494100,5.624494140625,-31.21186065673828,25.030441284179688,6.406532287597656
1779786626601576200,5.634576171875,-31.167884826660156,24.941810607910156,6.5568695068359375
1779786626611658000,5.644657958984375,-31.329612731933594,24.844154357910156,6.7675933837890625
1779786626621740000,5.654739990234375,-31.331748962402344,25.04705810546875,6.527015686035156
1779786626631820800,5.66482080078125,-31.36406707763672,25.051422119140625,6.7712249755859375
1779786626641902800,5.67490283203125,-31.63678741455078,25.061805725097656,6.8727874755859375
1779786626651985000,5.68498486328125,-31.770713806152344,25.17426300048828,6.694183349609375
1779786626662067000,5.69506689453125,-31.88843536376953,25.215194702148438,6.8201446533203125
1779786626672149000,5.70514892578125,-31.829429626464844,24.98993682861328,6.818412780761719
1779786626682230000,5.71522998046875,-31.738243103027344,25.02923583984375,6.667976379394531
1779786626692312000,5.72531201171875,-31.64214324951172,24.974822998046875,6.788322448730469
1779786626702394000,5.73539404296875,-32.05864715576172,24.5986328125,6.865196228027344
1779786626712476000,5.745475830078125,-32.10431671142578,24.476051330566406,6.676124572753906
1779786626722558000,5.755557861328125,-31.85613250732422,24.715721130371094,6.8220672607421875
1779786626732639000,5.765638916015625,-31.883262634277344,24.618026733398438,6.89910888671875
1779786626742721000,5.775720947265625,-31.71269989013672,24.858863830566406,6.727531433105469
1779786626752803000,5.785802978515625,-31.77863311767578,24.5643310546875,6.708259582519531
1779786626762885000,5.795885009765625,-31.948753356933594,24.730064392089844,6.678627014160156
1779786626772967200,5.80596728515625,-32.221778869628906,24.762908935546875,6.8455810546875
1779786626783049200,5.81604931640625,-31.62793731689453,24.795204162597656,6.735298156738281
1779786626793130000,5.8261298828125,-31.53203582763672,24.796775817871094,7.239555358886719
1779786626803212000,5.8362119140625,-31.355064392089844,25.10871124267578,6.9966583251953125
1779786626813293800,5.8462939453125,-31.371116638183594,25.298538208007812,6.997779846191406
1779786626823376000,5.8563759765625,-31.27906036376953,25.17803192138672,7.0842437744140625
1779786626833458000,5.8664580078125,-30.874732971191406,25.22486114501953,7.1433868408203125
1779786626843540000,5.8765400390625,-30.840126037597656,25.401954650878906,7.161407470703125
1779786626853621000,5.88662109375,-30.905311584472656,25.366531372070312,7.0536651611328125
1779786626863703000,5.896703125,-31.212196350097656,25.206947326660156,6.62152099609375
1779786626873785000,5.90678515625,-30.872032165527344,25.22795867919922,6.657829284667969
1779786626883867100,5.9168671875,-30.987998962402344,25.184776306152344,6.703254699707031
1779786626893949000,5.926948974609375,-31.15477752685547,25.23468780517578,6.4826812744140625
1779786626904030200,5.9370302734375,-31.185020446777344,25.30133056640625,6.531333923339844
1779786626914112000,5.947112060546875,-31.135398864746094,25.40630340576172,6.5123748779296875
1779786626924194000,5.957194091796875,-31.079734802246094,25.356048583984375,6.491546630859375
1779786626934276000,5.967276123046875,-30.949729919433594,25.45703887939453,6.571037292480469
1779786626944358100,5.977358154296875,-31.220375061035156,25.318931579589844,6.438041687011719
1779786626954440200,5.987440185546875,-31.22223663330078,25.549781799316406,6.704734802246094
1779786626964521000,5.99752099609375,-31.52246856689453,25.340530395507812,6.4593048095703125
1779786626974603000,6.00760302734375,-31.236366271972656,25.569862365722656,6.604484558105469
1779786626984685000,6.01768505859375,-30.992332458496094,25.36273956298828,6.503471374511719
1779786626994766800,6.027766845703125,-30.75025177001953,25.213790893554688,6.5015411376953125
1779786627004849000,6.037848876953125,-30.98180389404297,25.270492553710938,6.387153625488281
1779786627014931000,6.047930908203125,-31.412559509277344,25.288818359375,6.3543243408203125
1779786627025012000,6.058011962890625,-31.35448455810547,25.297744750976562,6.388885498046875
1779786627035094000,6.068093994140625,-31.18897247314453,24.8780517578125,6.549720764160156
1779786627045176000,6.078176025390625,-31.333045959472656,25.11138916015625,6.530372619628906
1779786627055258000,6.088258056640625,-31.36817169189453,25.11371612548828,6.7739715576171875
1779786627065340200,6.098340087890625,-31.38713836669922,25.284584045410156,6.9600982666015625
1779786627075422000,6.108421875,-31.39459991455078,25.2894287109375,6.73236083984375
1779786627085503000,6.1185029296875,-31.19969940185547,25.27515411376953,6.570075988769531
1779786627095585000,6.1285849609375,-31.39606475830078,25.38226318359375,6.680717468261719
1779786627105667000,6.1386669921875,-31.204185485839844,25.424766540527344,6.648681640625
1779786627115749000,6.1487490234375,-31.026893615722656,25.127761840820312,6.634895324707031
1779786627125831200,6.1588310546875,-30.79674530029297,25.24097442626953,6.438011169433594
1779786627135913000,6.168912841796875,-30.715721130371094,25.00103759765625,6.2884368896484375
1779786627145994000,6.178993896484375,-30.837562561035156,25.209556579589844,6.2844085693359375
1779786627156076000,6.189075927734375,-30.72795867919922,25.259429931640625,6.341575622558594
1779786627166158000,6.199157958984375,-30.47589874267578,25.352584838867188,6.2950592041015625
1779786627176239900,6.209239990234375,-30.77404022216797,25.339012145996094,6.2339324951171875
1779786627186322000,6.219322021484375,-30.90345001220703,25.372962951660156,6.170379638671875
1779786627196404000,6.229404052734375,-31.152671813964844,25.450660705566406,6.352500915527344
1779786627206485000,6.239485107421875,-30.85576629638672,25.50774383544922,6.423637390136719
1779786627216567000,6.249567138671875,-30.63507843017578,25.53832244873047,6.34051513671875
1779786627226649000,6.259649169921875,-30.90081024169922,25.605186462402344,6.465141296386719
1779786627236731100,6.269731201171875,-31.26396942138672,25.505096435546875,6.652183532714844
1779786627246813200,6.279813232421875,-30.948143005371094,25.56171417236328,6.7581939697265625
1779786627256895000,6.28989501953125,-31.493675231933594,25.252182006835938,6.749671936035156
1779786627266977000,6.29997705078125,-31.32788848876953,25.362899780273438,6.638587951660156
1779786627277058000,6.31005810546875,-31.260826110839844,25.53020477294922,6.729286193847656
1779786627287139800,6.320139892578125,-31.243690490722656,25.65680694580078,6.58538818359375
1779786627297222000,6.330221923828125,-31.767250061035156,25.400192260742188,6.339683532714844
1779786627307304000,6.340303955078125,-32.06739044189453,25.577224731445312,6.3896331787109375
1779786627317386000,6.350385986328125,-31.766578674316406,25.4423828125,6.218505859375
1779786627327468000,6.360468017578125,-31.442832946777344,25.315093994140625,6.2662200927734375
1779786627337549000,6.370549072265625,-31.696617126464844,25.47203826904297,6.327667236328125
1779786627347631000,6.380631103515625,-31.92626190185547,25.41943359375,6.471855163574219
1779786627357713000,6.390712890625,-31.99585723876953,25.230796813964844,6.378639221191406
1779786627367795000,6.400794921875,-31.50133514404297,25.091102600097656,6.368370056152344
1779786627377877000,6.410876953125,-31.10289764404297,25.19426727294922,6.110115051269531
1779786627387959000,6.420958984375,-30.861167907714844,25.383056640625,6.161468505859375
1779786627398040000,6.4310400390625,-30.991783142089844,25.509002685546875,6.1158599853515625
1779786627408122000,6.4411220703125,-30.739418029785156,25.550514221191406,6.125312805175781
1779786627418204200,6.4512041015625,-30.78704071044922,25.388336181640625,6.327812194824219
1779786627428286000,6.461285888671875,-30.81487274169922,25.61871337890625,6.428504943847656
1779786627438368000,6.471367919921875,-30.58588409423828,25.475547790527344,6.367225646972656
1779786627448450000,6.481449951171875,-30.52104949951172,25.964942932128906,6.368904113769531
1779786627458532000,6.491531982421875,-30.678871154785156,25.745925903320312,6.389320373535156
1779786627468612900,6.50161279296875,-30.76764678955078,25.78870391845703,6.0985870361328125
1779786627478695000,6.51169482421875,-30.74730682373047,25.782135009765625,5.941322326660156
1779786627488777000,6.52177685546875,-30.52722930908203,25.70781707763672,5.6979522705078125
1779786627498859000,6.53185888671875,-30.644691467285156,25.595130920410156,5.4702301025390625
1779786627508941000,6.541941162109375,-30.833717346191406,25.45056915283203,5.5372467041015625
1779786627519022800,6.55202294921875,-30.829444885253906,25.655296325683594,5.5278778076171875
1779786627529105000,6.56210498046875,-31.26050567626953,25.691665649414062,5.60662841796875
1779786627539186000,6.57218603515625,-30.97278594970703,25.763473510742188,5.864128112792969
1779786627549268000,6.58226806640625,-30.815711975097656,25.818321228027344,5.562957763671875
1779786627559350000,6.59235009765625,-31.069313049316406,25.673446655273438,5.935882568359375
1779786627569432000,6.60243212890625,-30.779335021972656,25.654075622558594,5.942314147949219
1779786627579514000,6.61251416015625,-30.835899353027344,25.903961181640625,6.072746276855469
1779786627589596200,6.62259619140625,-31.03655242919922,25.962127685546875,5.930381774902344
1779786627599677200,6.63267724609375,-30.91095733642578,25.990158081054688,5.767250061035156
1779786627609759000,6.642759033203125,-30.696693420410156,26.064056396484375,5.988304138183594
1779786627619841000,6.652841064453125,-30.721534729003906,26.152145385742188,6.015434265136719
1779786627629923000,6.662923095703125,-30.909339904785156,26.04920196533203,6.089561462402344
1779786627640005000,6.673005126953125,-31.02832794189453,26.08977508544922,6.0373687744140625
1779786627650087200,6.683087158203125,-30.763145446777344,26.09112548828125,6.368949890136719
1779786627660169200,6.693169189453125,-30.97614288330078,26.018516540527344,6.2649688720703125
1779786627670250000,6.70325,-30.768577575683594,25.95842742919922,6.248565673828125
1779786627680332000,6.71333203125,-30.52660369873047,26.07244873046875,6.302925109863281
1779786627690413800,6.723413818359375,-30.28784942626953,26.32501983642578,6.212455749511719
1779786627700496000,6.733495849609375,-30.32878875732422,26.333045959472656,6.059059143066406
1779786627710578000,6.743577880859375,-30.372352600097656,26.239463806152344,6.315361022949219
1779786627720660000,6.753659912109375,-30.24034881591797,26.161636352539062,6.3002166748046875
1779786627730742000,6.763741943359375,-29.676673889160156,26.11449432373047,6.443565368652344
1779786627740824000,6.773823974609375,-29.808937072753906,26.11315155029297,6.600006103515625
1779786627750905000,6.783905029296875,-29.86138153076172,26.233474731445312,6.648231506347656
1779786627760987100,6.793987060546875,-29.799766540527344,26.390167236328125,6.532562255859375
1779786627771069000,6.80406884765625,-29.908958435058594,26.404312133789062,6.3641510009765625
1779786627781151000,6.81415087890625,-29.689979553222656,26.397186279296875,6.47357177734375
1779786627791233000,6.82423291015625,-29.816673278808594,26.25432586669922,6.063072204589844
1779786627801315000,6.834315185546875,-29.834800720214844,26.21562957763672,6.153480529785156
1779786627811397000,6.844397216796875,-29.89081573486328,26.367767333984375,6.1422119140625
1779786627821478100,6.85447802734375,-29.463111877441406,26.328781127929688,5.929023742675781
1779786627831560000,6.864559814453125,-29.42351531982422,26.3341064453125,5.64044189453125
1779786627841642000,6.87464208984375,-29.484947204589844,26.271255493164062,5.864654541015625
1779786627851723800,6.884723876953125,-29.555213928222656,26.314376831054688,5.916908264160156
1779786627861805600,6.8948056640625,-30.01195526123047,26.417831420898438,6.239036560058594
1779786627871887600,6.9048876953125,-30.297096252441406,26.391441345214844,6.0189666748046875
1779786627881969700,6.9149697265625,-30.333396911621094,26.204681396484375,6.125221252441406
1779786627892050700,6.92505078125,-30.54363250732422,26.36994171142578,5.934669494628906
1779786627902132700,6.9351328125,-30.149559020996094,26.198562622070312,6.025726318359375
1779786627912214500,6.945214599609375,-30.45665740966797,26.077529907226562,6.0837249755859375
1779786627922296600,6.955296630859375,-30.03008270263672,25.99486541748047,6.2621002197265625
1779786627932378600,6.965378662109375,-30.03008270263672,25.99486541748047,6.2621002197265625
1779786627942460400,6.97546044921875,-30.61029815673828,25.974136352539062,6.255058288574219
1779786627952542500,6.98554248046875,-30.42937469482422,26.019989013671875,6.0978851318359375
1779786627962624500,6.99562451171875,-30.509925842285156,26.057632446289062,6.1174163818359375
1779786627972705500,7.00570556640625,-30.297996520996094,26.050277709960938,5.9526214599609375
1779786627982787600,7.01578759765625,-30.355323791503906,26.040481567382812,6.0588531494140625
1779786627992869600,7.02586962890625,-30.554893493652344,25.918685913085938,6.04876708984375
1779786628002951700,7.03595166015625,-30.794334411621094,25.83642578125,5.824737548828125
1779786628013033700,7.04603369140625,-30.383995056152344,25.89117431640625,5.968109130859375
1779786628023115500,7.056115478515625,-30.383995056152344,25.89117431640625,5.968109130859375
1779786628033197600,7.066197509765625,-30.410545349121094,25.867958068847656,6.171302795410156
1779786628043279600,7.076279541015625,-30.433815002441406,25.913299560546875,6.029510498046875
1779786628053360600,7.086360595703125,-30.082237243652344,26.16144561767578,6.160850524902344
1779786628063442700,7.096442626953125,-29.781333923339844,26.17125701904297,6.10491943359375
1779786628073524700,7.106524658203125,-29.954978942871094,26.187347412109375,5.9395294189453125
1779786628083606800,7.116606689453125,-30.26532745361328,26.348159790039062,5.958488464355469
1779786628093688800,7.126688720703125,-30.112510681152344,26.480453491210938,5.975349426269531
1779786628103770600,7.1367705078125,-29.680885314941406,26.400848388671875,5.997505187988281
1779786628113852700,7.146852783203125,-29.482383728027344,26.63066864013672,6.0494384765625
1779786628123934700,7.156934814453125,-29.714637756347656,26.43994140625,5.9673309326171875
1779786628134015500,7.167015380859375,-29.77581024169922,26.48615264892578,6.260536193847656
1779786628144097500,7.17709765625,-29.801307678222656,26.225906372070312,5.7662200927734375
1779786628154179600,7.1871796875,-29.74077606201172,26.427574157714844,5.7820281982421875
1779786628164261600,7.19726171875,-29.893165588378906,26.534454345703125,5.732383728027344
1779786628174343700,7.20734375,-29.61603546142578,26.466888427734375,5.88134765625
1779786628184425500,7.217425537109375,-29.544334411621094,26.467323303222656,5.710479736328125
1779786628194507500,7.227507568359375,-29.51007843017578,26.604515075683594,6.113883972167969
1779786628204589600,7.237589599609375,-29.64922332763672,26.589645385742188,6.1153411865234375
1779786628214670600,7.247670654296875,-29.795066833496094,26.628990173339844,6.001609802246094
1779786628224752600,7.257752685546875,-29.657203674316406,26.650360107421875,6.257865905761719
1779786628234834700,7.267834716796875,-29.88396453857422,26.64087677001953,6.344184875488281
1779786628244916700,7.277916748046875,-30.309913635253906,26.699005126953125,6.3599090576171875
1779786628254998800,7.287998779296875,-30.207069396972656,26.86090850830078,6.387939453125
1779786628265080600,7.29808056640625,-29.995765686035156,27.02690887451172,6.500480651855469
1779786628275162600,7.30816259765625,-29.86998748779297,26.823753356933594,6.428985595703125
1779786628285244700,7.31824462890625,-30.015708923339844,26.995651245117188,6.430686950683594
1779786628295326700,7.32832666015625,-30.142295837402344,26.815269470214844,6.508003234863281
1779786628305407500,7.338407470703125,-29.80913543701172,26.75665283203125,6.342620849609375
1779786628315489500,7.348489501953125,-29.996360778808594,26.839698791503906,6.51214599609375
1779786628325571600,7.358571533203125,-30.096107482910156,26.779869079589844,6.4399261474609375
1779786628335653600,7.368653564453125,-29.959678649902344,26.882286071777344,6.9123687744140625
1779786628345735400,7.3787353515625,-30.27490997314453,26.698692321777344,6.458892822265625
1779786628355817500,7.3888173828125,-30.29322052001953,26.8980712890625,6.655082702636719
1779786628365899500,7.3988994140625,-30.068763732910156,26.941635131835938,6.651954650878906
1779786628375981600,7.408981689453125,-29.99903106689453,26.844131469726562,6.983482360839844
1779786628386063600,7.419063720703125,-29.991920471191406,26.777732849121094,6.887077331542969
1779786628396144600,7.42914453125,-30.184181213378906,26.752120971679688,6.614356994628906
1779786628406226700,7.439226806640625,-29.94896697998047,26.694229125976562,6.687370300292969
1779786628416308700,7.449308837890625,-29.623451232910156,26.736740112304688,6.701454162597656
1779786628426390500,7.459390625,-29.747962951660156,26.91783905029297,6.7051239013671875
1779786628436472600,7.46947265625,-29.634010314941406,26.96483612060547,6.899284362792969
1779786628446554600,7.4795546875,-29.72534942626953,26.885780334472656,6.827323913574219
1779786628456636700,7.48963671875,-29.53044891357422,26.786972045898438,6.824127197265625
1779786628466718700,7.49971875,-29.746681213378906,26.590896606445312,6.906585693359375
1779786628476800800,7.50980078125,-29.779624938964844,26.431739807128906,6.650604248046875
1779786628486881800,7.5198818359375,-29.738868713378906,26.555999755859375,6.739166259765625
1779786628496963800,7.5299638671875,-29.76599884033203,26.60051727294922,6.5357666015625
1779786628507045600,7.540045654296875,-29.777122497558594,26.676254272460938,6.412681579589844
1779786628517127700,7.550127685546875,-29.83979034423828,26.852691650390625,6.270637512207031
1779786628527209500,7.56020947265625,-29.53319549560547,26.537216186523438,6.446807861328125
1779786628537291500,7.57029150390625,-29.520957946777344,26.511451721191406,6.638664245605469
1779786628547373600,7.58037353515625,-30.052146911621094,26.504859924316406,6.49951171875
1779786628557455600,7.59045556640625,-30.320152282714844,26.502166748046875,6.577125549316406
1779786628567537700,7.60053759765625,-30.38726043701172,26.77281951904297,6.431793212890625
1779786628577618700,7.61061865234375,-30.58887481689453,26.601882934570312,6.539344787597656
1779786628587700500,7.620700439453125,-30.333091735839844,26.53063201904297,6.6975250244140625
1779786628597782500,7.630782470703125,-30.35327911376953,26.73424530029297,6.765617370605469
1779786628607864600,7.640864501953125,-30.81891632080078,26.834793090820312,6.519195556640625
1779786628617946600,7.650946533203125,-30.922752380371094,26.80072784423828,6.4409637451171875
1779786628628028700,7.661028564453125,-30.73792266845703,26.85845184326172,6.603668212890625
1779786628638110700,7.67111083984375,-30.86248016357422,26.8583984375,6.637596130371094
1779786628648192800,7.68119287109375,-30.81322479248047,26.72125244140625,6.5337066650390625
1779786628658274600,7.691274658203125,-30.304710388183594,26.730918884277344,6.829444885253906
1779786628668356600,7.701356689453125,-30.65143585205078,26.767074584960938,6.8464813232421875
1779786628678437600,7.711437744140625,-30.78697967529297,26.73480987548828,6.907958984375
1779786628688519700,7.721519775390625,-31.23279571533203,26.773651123046875,6.733879089355469
1779786628698601700,7.731601806640625,-30.724891662597656,26.66644287109375,6.7502899169921875
1779786628708683800,7.741683837890625,-30.715553283691406,26.701072692871094,6.667259216308594
1779786628718765800,7.751765869140625,-30.74103546142578,26.703041076660156,6.587196350097656
1779786628728847600,7.76184765625,-31.061622619628906,26.806686401367188,6.7032470703125
1779786628738929700,7.7719296875,-31.188209533691406,26.444664001464844,6.8071136474609375
1779786628749011700,7.78201171875,-30.680076599121094,26.48827362060547,6.5606536865234375
1779786628759093500,7.792093505859375,-30.507896423339844,26.476890563964844,6.57000732421875
1779786628769175600,7.802175537109375,-30.52269744873047,26.397933959960938,6.531211853027344
1779786628779257600,7.812257568359375,-30.48839569091797,26.25731658935547,6.738716125488281
1779786628789338600,7.822338623046875,-30.52484893798828,26.27166748046875,6.600700378417969
1779786628799420700,7.832420654296875,-30.716697692871094,26.38507843017578,6.451087951660156
1779786628809502700,7.842502685546875,-30.770301818847656,26.387603759765625,6.73187255859375
1779786628819584500,7.85258447265625,-30.850135803222656,26.38800048828125,6.561714172363281
1779786628829666600,7.86266650390625,-30.752525329589844,26.311477661132812,6.4761505126953125
1779786628839748600,7.87274853515625,-30.822608947753906,25.88397216796875,6.54583740234375
1779786628849830400,7.882830322265625,-30.85216522216797,25.963470458984375,6.382392883300781
1779786628859912400,7.892912353515625,-31.111183166503906,26.089324951171875,6.4351959228515625
1779786628869994500,7.902994384765625,-30.985389709472656,26.078163146972656,6.4747467041015625
1779786628880076300,7.913076171875,-30.822349548339844,26.068565368652344,6.360359191894531
1779786628890157600,7.923157470703125,-30.848670959472656,25.93903350830078,6.393394470214844
1779786628900239400,7.9332392578125,-31.101585388183594,25.927093505859375,6.358940124511719
1779786628910321400,7.9433212890625,-30.937843322753906,25.96997833251953,6.229331970214844
1779786628920403500,7.953403564453125,-30.648033142089844,26.03917694091797,6.5598297119140625
1779786628930485500,7.963485595703125,-30.76012420654297,26.048675537109375,6.706977844238281
1779786628940567600,7.973567626953125,-31.04204559326172,25.997329711914062,6.872123718261719
1779786628950649600,7.983649658203125,-31.246116638183594,26.23896026611328,6.745155334472656
1779786628960731400,7.9937314453125,-31.07048797607422,26.06702423095703,6.767791748046875
1779786628970813400,8.0038134765625,-31.012901306152344,26.005760192871094,6.864921569824219
1779786628980895500,8.0138955078125,-30.890724182128906,26.048858642578125,6.827934265136719
1779786628990977500,8.0239775390625,-30.85918426513672,25.79845428466797,7.0233001708984375
1779786629001059600,8.0340595703125,-31.10753631591797,25.787376403808594,6.939964294433594
1779786629011140400,8.044140380859375,-31.20818328857422,25.647964477539062,6.667823791503906
1779786629021222400,8.054222412109375,-31.20891571044922,25.589004516601562,6.6863861083984375
1779786629031304400,8.064304443359376,-31.356651306152344,25.919937133789062,6.807563781738281
1779786629041386200,8.07438623046875,-31.389549255371094,26.049896240234375,6.7540130615234375
1779786629051468300,8.08446826171875,-31.09210968017578,25.8099365234375,6.766410827636719
1779786629061550300,8.09455029296875,-31.094154357910156,25.775894165039062,6.7696380615234375
1779786629071632400,8.10463232421875,-31.06256866455078,25.74755859375,6.913322448730469
1779786629081714400,8.11471435546875,-31.472328186035156,25.883522033691406,6.896331787109375
1779786629091796500,8.12479638671875,-31.04212188720703,25.769271850585938,6.8816680908203125
1779786629101878500,8.13487841796875,-31.04450225830078,25.697906494140625,7.0536041259765625
1779786629111960300,8.144960205078124,-31.027244567871094,25.721405029296875,7.094459533691406
1779786629122042400,8.15504248046875,-31.20612335205078,25.7353515625,6.857475280761719
1779786629132123400,8.165123291015625,-31.189979553222656,25.875343322753906,6.9476470947265625
1779786629142205400,8.175205322265626,-30.918312072753906,25.78441619873047,7.101593017578125
1779786629152287500,8.18528759765625,-31.21753692626953,25.78124237060547,6.7732696533203125
1779786629162369500,8.19536962890625,-31.266258239746094,25.69593048095703,6.7882537841796875
1779786629172451600,8.20545166015625,-31.12694549560547,25.861045837402344,6.941078186035156
1779786629182533400,8.215533447265624,-31.095680236816406,25.712493896484375,6.608551025390625
1779786629192615400,8.225615478515625,-31.08008575439453,25.58966064453125,6.742668151855469
1779786629202697500,8.235697509765625,-30.927284240722656,25.567344665527344,6.559783935546875
1779786629212779500,8.245779541015626,-31.02655792236328,25.64344024658203,6.782417297363281
1779786629222861600,8.255861572265625,-30.905189514160156,25.6319580078125,6.785392761230469
1779786629232943600,8.265943603515625,-30.965843200683594,25.608535766601562,6.730674743652344
1779786629243025700,8.276025634765626,-31.246009826660156,25.592002868652344,6.77166748046875
1779786629253106400,8.2861064453125,-31.086570739746094,25.5738525390625,6.508201599121094
1779786629263188500,8.2961884765625,-31.33129119873047,25.56749725341797,6.416587829589844
1779786629273270300,8.306270263671875,-31.26537322998047,25.67237091064453,6.494316101074219
1779786629283352300,8.316352294921876,-31.335655212402344,25.961326599121094,6.435699462890625
1779786629293434400,8.326434326171874,-31.350746154785156,25.99768829345703,6.383811950683594
1779786629303516400,8.336516357421875,-31.211647033691406,25.995071411132812,6.525627136230469
1779786629313598500,8.346598388671875,-31.087745666503906,25.86528778076172,6.424842834472656
1779786629323680500,8.356680419921876,-31.22655487060547,25.790374755859375,6.427391052246094
1779786629333762300,8.36676220703125,-31.46410369873047,25.710433959960938,6.6307373046875
1779786629343844400,8.37684423828125,-31.440391540527344,25.528221130371094,6.5906829833984375
1779786629353926400,8.386926513671876,-31.51964569091797,25.66832733154297,6.489250183105469
1779786629364008400,8.397008544921874,-31.71862030029297,25.48914337158203,6.458900451660156
1779786629374090500,8.407090576171875,-31.56279754638672,25.345848083496094,6.716972351074219
1779786629384172500,8.417172607421875,-31.24535369873047,25.66510009765625,6.8352508544921875
1779786629394253600,8.427253662109376,-31.34272003173828,25.590843200683594,6.8391265869140625
1779786629404335600,8.437335693359374,-30.994239807128906,25.625930786132812,6.815681457519531
1779786629414417400,8.44741748046875,-31.10881805419922,25.70745849609375,6.6768798828125
1779786629424499500,8.45749951171875,-31.340553283691406,25.56139373779297,6.6068572998046875
1779786629434581500,8.46758154296875,-31.414512634277344,25.58196258544922,6.7992706298828125
1779786629444663600,8.47766357421875,-31.342384338378906,25.482826232910156,6.752296447753906
1779786629454745600,8.48774560546875,-31.34027862548828,25.31920623779297,6.624595642089844
1779786629464827600,8.49782763671875,-31.579627990722656,25.597938537597656,6.561332702636719
1779786629474909400,8.507909423828124,-31.500404357910156,25.427581787109375,6.6255645751953125
1779786629484991200,8.5179912109375,-31.261070251464844,25.48572540283203,6.747245788574219
1779786629495073300,8.5280732421875,-31.30712127685547,25.472923278808594,6.5374603271484375
1779786629505155300,8.5381552734375,-31.47748565673828,25.575698852539062,6.12518310546875
1779786629515237400,8.5482373046875,-31.28423309326172,25.825111389160156,6.354209899902344
1779786629525319400,8.5583193359375,-30.87865447998047,25.643096923828125,6.514656066894531
1779786629535400400,8.568400390625,-31.21656036376953,25.633628845214844,6.3091583251953125
1779786629545482500,8.578482421875,-31.57227325439453,25.595855712890625,6.335609436035156
1779786629555564300,8.588564208984375,-31.37921905517578,25.874374389648438,6.2338104248046875
1779786629565646300,8.598646240234375,-31.218711853027344,25.653900146484375,6.29547119140625
1779786629575728400,8.608728271484376,-30.967506408691406,25.84656524658203,6.425773620605469
1779786629585810400,8.618810546875,-30.828575134277344,25.805824279785156,6.248687744140625
1779786629595892500,8.628892578125,-30.808494567871094,25.720497131347656,6.378578186035156
1779786629605974500,8.638974609375,-30.65369415283203,25.768112182617188,6.539100646972656
1779786629616056300,8.649056396484376,-30.69770050048828,25.67644500732422,6.215217590332031
1779786629626138400,8.659138427734375,-30.80498504638672,25.84838104248047,6.111358642578125
1779786629636220400,8.669220458984375,-30.88213348388672,25.78820037841797,6.326324462890625
1779786629646302500,8.679302490234376,-31.07585906982422,25.547317504882812,6.4938201904296875
1779786629656384500,8.689384521484374,-30.93364715576172,25.5994873046875,6.671028137207031
1779786629666466600,8.699466552734375,-30.78704071044922,25.629348754882812,6.7006072998046875
1779786629676548600,8.709548583984375,-30.954063415527344,25.393577575683594,7.156730651855469
1779786629686630400,8.71963037109375,-31.091102600097656,25.49077606201172,6.862892150878906
1779786629696711400,8.72971142578125,-31.479759216308594,25.536209106445312,6.9503021240234375
1779786629706793500,8.73979345703125,-31.696754455566406,25.487991333007812,6.870841979980469
1779786629716875300,8.749875244140625,-31.63280487060547,25.429237365722656,6.694671630859375
1779786629726957300,8.759957275390626,-31.918983459472656,25.24944305419922,6.8654327392578125
1779786629737039400,8.770039306640625,-31.68639373779297,25.05792999267578,6.8620147705078125
1779786629747121400,8.780121337890625,-31.64075469970703,25.098953247070312,6.9547576904296875
1779786629757203500,8.790203369140626,-31.460548400878906,25.170730590820312,6.8052825927734375
1779786629767285200,8.80028515625,-31.565467834472656,25.215309143066406,7.0687103271484375
1779786629777367300,8.8103671875,-31.27075958251953,25.345909118652344,6.674674987792969
1779786629787449300,8.820449462890625,-31.281639099121094,25.18956756591797,6.8798065185546875
1779786629797531400,8.830531494140626,-31.555091857910156,25.173851013183594,6.8452606201171875
1779786629807613400,8.840613525390625,-31.01898956298828,25.166526794433594,6.8559722900390625
1779786629817695500,8.850695556640625,-31.099952697753906,25.12505340576172,6.825592041015625
1779786629827777300,8.86077734375,-30.92035675048828,25.277549743652344,6.762718200683594
1779786629837859300,8.870859375,-31.15222930908203,25.162582397460938,6.8108978271484375
1779786629847941400,8.88094140625,-31.28533172607422,25.185806274414062,6.837005615234375
1779786629858023400,8.8910234375,-31.222190856933594,25.292953491210938,6.7430267333984375
1779786629868105500,8.90110546875,-31.27997589111328,25.13677215576172,6.605232238769531
1779786629878186500,8.9111865234375,-31.02912139892578,25.152297973632812,6.5821075439453125
1779786629888268500,8.9212685546875,-30.90479278564453,25.120956420898438,6.539985656738281
1779786629898350600,8.9313505859375,-30.907936096191406,25.161849975585938,6.457183837890625
1779786629908432400,8.941432373046876,-30.73767852783203,25.35943603515625,6.571601867675781
1779786629918514400,8.951514404296875,-30.88671112060547,25.25151824951172,6.681861877441406
1779786629928596500,8.961596435546875,-30.87012481689453,25.364662170410156,6.592254638671875
1779786629938678500,8.971678466796876,-30.929664611816406,25.23694610595703,6.558784484863281
1779786629948760600,8.981760498046874,-31.31249237060547,25.35334014892578,6.513557434082031
1779786629958842600,8.991842529296875,-31.33946990966797,25.382835388183594,6.195396423339844
1779786629968924400,9.00192431640625,-31.53582000732422,25.2003173828125,6.3674468994140625
1779786629979006500,9.01200634765625,-31.068275451660156,25.36701202392578,6.49029541015625
1779786629989088500,9.022088623046875,-30.80561065673828,25.23546600341797,6.123191833496094
1779786629999170600,9.032170654296875,-30.81073760986328,25.036216735839844,5.942047119140625
1779786630009252400,9.04225244140625,-30.974830627441406,25.106101989746094,6.129875183105469
1779786630019334400,9.05233447265625,-30.76837921142578,25.303298950195312,6.2873992919921875
1779786630029416400,9.06241650390625,-30.66991424560547,25.167564392089844,6.206024169921875
1779786630039498200,9.072498291015625,-30.71605682373047,25.402976989746094,6.0514678955078125
1779786630049580300,9.082580322265626,-31.507530212402344,25.376930236816406,6.028007507324219
1779786630059662300,9.092662353515625,-30.916893005371094,25.56292724609375,6.076316833496094
1779786630069744400,9.102744384765625,-30.87732696533203,25.644821166992188,5.735198974609375
1779786630079825400,9.112825439453125,-30.894752502441406,25.56536102294922,5.720726013183594
1779786630089907500,9.122907470703124,-30.86241912841797,25.565139770507812,5.912353515625
1779786630099989500,9.132989501953125,-30.953407287597656,25.46771240234375,5.711311340332031
1779786630110071300,9.1430712890625,-30.91919708251953,25.69305419921875,5.594024658203125
1779786630120153300,9.1531533203125,-30.70531463623047,25.45783233642578,5.9591827392578125
1779786630130235400,9.1632353515625,-30.850685119628906,25.418487548828125,6.1335906982421875
1779786630140317400,9.1733173828125,-30.892005920410156,25.527618408203125,5.944427490234375
1779786630150399500,9.1833994140625,-30.397560119628906,25.569969177246094,6.0872650146484375
1779786630160481500,9.1934814453125,-30.510536193847656,25.260726928710938,6.0272064208984375
1779786630170563600,9.2035634765625,-30.67394256591797,25.258453369140625,6.2536163330078125
1779786630180645400,9.213645263671875,-30.67577362060547,25.348670959472656,6.133979797363281
1779786630190727400,9.2237275390625,-30.77758026123047,25.291954040527344,5.919242858886719
1779786630200809500,9.2338095703125,-30.66168975830078,25.382423400878906,6.029121398925781
1779786630210891500,9.2438916015625,-30.741600036621094,25.559173583984375,6.033447265625
1779786630220973600,9.2539736328125,-31.128684997558594,25.41028594970703,6.0983734130859375
1779786630231055600,9.2640556640625,-30.924415588378906,25.460655212402344,6.0909271240234375
1779786630241137400,9.274137451171875,-30.855018615722656,25.409339904785156,6.1104888916015625
1779786630251219500,9.284219482421875,-30.85761260986328,25.560791015625,6.0023193359375
1779786630261301500,9.294301513671876,-30.76972198486328,25.490692138671875,6.2858734130859375
1779786630271383600,9.304383544921874,-30.741127014160156,25.46270751953125,6.362266540527344
1779786630281465600,9.314465576171875,-30.72936248779297,25.32160186767578,6.213630676269531
1779786630291547600,9.324547607421875,-30.697410583496094,25.441200256347656,6.125236511230469
1779786630301629400,9.33462939453125,-30.45276641845703,25.500747680664062,6.256690979003906
1779786630311710500,9.34471044921875,-30.718772888183594,25.46318817138672,5.983238220214844
1779786630321792300,9.354792236328125,-30.62248992919922,25.576004028320312,5.899330139160156
1779786630331874300,9.364874267578125,-30.35034942626953,25.668350219726562,5.897850036621094
1779786630341956400,9.374956298828126,-30.27251434326172,25.5059814453125,5.775047302246094
1779786630352038400,9.385038330078125,-30.244407653808594,25.593093872070312,6.062103271484375
1779786630362120400,9.395120361328125,-30.115577697753906,25.677894592285156,6.020538330078125
1779786630372202500,9.405202392578126,-30.237449645996094,25.410804748535156,6.116828918457031
1779786630382284300,9.4152841796875,-30.23358917236328,25.50970458984375,6.1655731201171875
1779786630392366300,9.425366455078125,-30.558692932128906,25.348785400390625,5.884757995605469
1779786630402448400,9.435448486328125,-30.30895233154297,25.558563232421875,5.800941467285156
1779786630412530400,9.445530517578124,-30.319679260253906,25.634239196777344,5.641441345214844
1779786630422612500,9.455612548828125,-30.35521697998047,25.607528686523438,5.886383056640625
1779786630432694500,9.465694580078125,-30.658241271972656,25.56645965576172,6.053855895996094
1779786630442776300,9.4757763671875,-30.72679901123047,25.2471923828125,6.295417785644531
1779786630452858400,9.4858583984375,-30.576942443847656,25.45203399658203,6.1055755615234375
1779786630462940400,9.4959404296875,-30.531776428222656,25.66436004638672,6.513252258300781
1779786630473022500,9.5060224609375,-30.37653350830078,25.746429443359375,6.499778747558594
1779786630483104500,9.5161044921875,-30.372947692871094,25.6539306640625,6.230354309082031
1779786630493186600,9.5261865234375,-30.570045471191406,25.6456298828125,6.13037109375
1779786630503268600,9.5362685546875,-30.201148986816406,25.658462524414062,6.106117248535156
1779786630513350400,9.546350341796876,-30.317955017089844,25.468475341796875,5.909416198730469
1779786630523432400,9.556432373046874,-30.60717010498047,25.41777801513672,6.1954193115234375
1779786630533514500,9.566514404296875,-30.454078674316406,25.201889038085938,6.35992431640625
1779786630543596500,9.576596435546875,-30.470375061035156,24.94591522216797,6.445884704589844
1779786630553678600,9.5866787109375,-30.18767547607422,25.245460510253906,6.715690612792969
1779786630563760600,9.5967607421875,-30.077003479003906,25.23944854736328,6.57025146484375
1779786630573842400,9.606842529296875,-30.361656188964844,25.278648376464844,6.584587097167969
1779786630583924500,9.616924560546876,-30.13465118408203,25.159576416015625,6.354034423828125
1779786630594006500,9.627006591796874,-29.96459197998047,25.221420288085938,6.489875793457031
1779786630604088600,9.637088623046875,-30.20294952392578,25.20209503173828,6.338981628417969
1779786630614170400,9.64717041015625,-30.354393005371094,25.233314514160156,6.670570373535156
1779786630624252400,9.65725244140625,-30.235633850097656,25.2110595703125,6.795379638671875
1779786630634333400,9.66733349609375,-30.18828582763672,25.055816650390625,6.558860778808594
1779786630644415500,9.67741552734375,-30.01886749267578,25.096900939941406,6.653472900390625
1779786630654497300,9.687497314453125,-29.93439483642578,25.083656311035156,6.316497802734375
1779786630664579300,9.697579345703126,-29.97460174560547,25.126663208007812,6.31280517578125
1779786630674661400,9.707661376953125,-30.12244415283203,24.95543670654297,6.183624267578125
1779786630684743400,9.717743408203125,-30.06566619873047,25.360801696777344,6.304771423339844
1779786630694825500,9.727825439453126,-29.773155212402344,25.372764587402344,6.472412109375
1779786630704907500,9.737907470703124,-30.01862335205078,25.377296447753906,6.0514068603515625
1779786630714989300,9.7479892578125,-29.70990753173828,25.58087158203125,6.1990966796875
1779786630725071400,9.7580712890625,-29.42919158935547,25.338768005371094,6.425872802734375
1779786630735153400,9.7681533203125,-29.08184051513672,25.356475830078125,6.373527526855469
1779786630745235500,9.7782353515625,-29.477821350097656,25.38658905029297,6.16082763671875
1779786630755317500,9.7883173828125,-29.78643035888672,25.216636657714844,5.96258544921875
1779786630765399600,9.798399658203126,-30.119850158691406,25.247215270996094,5.942413330078125
1779786630775481300,9.8084814453125,-30.25615692138672,25.388427734375,6.062705993652344
1779786630785563400,9.8185634765625,-29.88640594482422,25.31053924560547,6.026329040527344
1779786630795645400,9.8286455078125,-30.224708557128906,25.18968963623047,5.772331237792969
1779786630805727500,9.8387275390625,-30.436134338378906,25.127525329589844,5.745491027832031
1779786630815809500,9.8488095703125,-30.27503204345703,25.039207458496094,5.804771423339844
1779786630825891600,9.8588916015625,-30.280418395996094,25.090194702148438,5.771514892578125
1779786630835973400,9.868973388671876,-30.273414611816406,25.140586853027344,6.115753173828125
1779786630846055400,9.879055419921874,-30.091407775878906,25.365249633789062,6.11279296875
1779786630856138000,9.889137939453125,-30.03343963623047,25.32946014404297,5.8140411376953125
1779786630866220000,9.899219970703125,-30.157676696777344,25.246910095214844,6.0233306884765625
1779786630876302000,9.909302001953124,-30.45001983642578,25.254356384277344,5.939628601074219
1779786630886383900,9.9193837890625,-30.655845642089844,25.311241149902344,5.76776123046875
1779786630896465700,9.929465576171875,-30.62207794189453,25.12836456298828,5.736663818359375
1779786630906547700,9.939547607421876,-30.36278533935547,25.115928649902344,5.754508972167969
1779786630916629800,9.949629638671874,-30.40576934814453,25.189231872558594,5.747428894042969
1779786630926711800,9.9597119140625,-30.41191864013672,24.966773986816406,5.833518981933594
1779786630936793900,9.9697939453125,-30.43578338623047,24.974884033203125,5.911651611328125
1779786630946876000,9.9798759765625,-30.490882873535156,25.167282104492188,6.1611328125
1779786630956957700,9.989957763671875,-30.30644989013672,25.022933959960938,6.3122100830078125
1779786630967039700,10.000039794921875,-30.493385314941406,24.94073486328125,6.110862731933594
1779786630977121800,10.010121826171876,-30.34711456298828,25.06793212890625,6.1952362060546875
1779786630987203800,10.020203857421874,-30.270713806152344,24.90630340576172,5.9447784423828125
1779786630997286000,10.030285888671875,-30.423118591308594,25.127044677734375,6.035133361816406
1779786631007368000,10.040367919921875,-30.752708435058594,24.958946228027344,5.956695556640625
1779786631017449700,10.05044970703125,-31.03351593017578,25.007591247558594,6.061698913574219
1779786631027531800,10.06053173828125,-30.669273376464844,25.176300048828125,5.89935302734375
1779786631037613800,10.07061376953125,-30.496315002441406,25.221900939941406,6.084312438964844
1779786631047696000,10.08069580078125,-30.247337341308594,25.179489135742188,6.005851745605469
1779786631057778000,10.09077783203125,-30.42467498779297,25.155860900878906,6.0924530029296875
1779786631067860000,10.10085986328125,-30.35095977783203,25.222068786621094,6.0843505859375
1779786631077942000,10.11094189453125,-30.308250427246094,25.113235473632812,6.02386474609375
1779786631088023800,10.12102392578125,-30.40758514404297,25.09571075439453,6.017280578613281
1779786631098105900,10.13110595703125,-30.41436004638672,24.861595153808594,6.092445373535156
1779786631108188000,10.14118798828125,-30.52111053466797,24.868614196777344,6.01812744140625
1779786631118270000,10.15127001953125,-30.25890350341797,24.857864379882812,6.189422607421875
1779786631128352000,10.16135205078125,-30.36658477783203,24.84619140625,6.070350646972656
1779786631138434000,10.17143408203125,-30.03038787841797,24.896331787109375,5.813560485839844
1779786631148515800,10.181515869140625,-29.832115173339844,24.886985778808594,5.974586486816406
1779786631158598000,10.191597900390626,-29.99024200439453,24.957534790039062,5.995429992675781
1779786631168680000,10.201679931640625,-29.80309295654297,24.93889617919922,5.76959228515625
1779786631178762000,10.211761962890625,-29.86608123779297,24.92913818359375,5.911346435546875
1779786631188844000,10.221843994140626,-29.512428283691406,24.75873565673828,5.732032775878906
1779786631198926000,10.231926025390624,-29.811607360839844,24.858062744140625,5.8172607421875
1779786631209007900,10.2420078125,-29.80467987060547,24.574440002441406,6.0785369873046875
1779786631219090000,10.25208984375,-29.66197967529297,24.786514282226562,5.888465881347656
1779786631229172000,10.262171875,-30.03838348388672,24.92205047607422,5.856147766113281
1779786631239254000,10.27225390625,-30.27539825439453,24.965744018554688,5.906105041503906
1779786631249336000,10.282336181640625,-30.18938446044922,25.00023651123047,6.085426330566406
1779786631259417900,10.29241796875,-29.999549865722656,25.152740478515625,6.202003479003906
1779786631269500000,10.3025,-29.94599151611328,25.158050537109375,5.799102783203125
1779786631279581700,10.312581787109375,-30.12677764892578,25.170883178710938,5.9298095703125
1779786631289663700,10.322663818359375,-30.00354766845703,25.143455505371094,5.747505187988281
1779786631299745800,10.332745849609376,-30.13115692138672,25.127700805664062,6.0729522705078125
1779786631309827800,10.342827880859375,-30.240745544433594,24.937713623046875,6.299713134765625
1779786631319910000,10.352909912109375,-29.85601043701172,25.022850036621094,6.1008453369140625
1779786631329992000,10.362991943359376,-29.736473083496094,25.17633819580078,5.951446533203125
1779786631340073700,10.37307373046875,-29.907127380371094,24.89691925048828,6.055877685546875
1779786631350155800,10.38315576171875,-30.08867645263672,24.948585510253906,5.904670715332031
1779786631360237800,10.39323779296875,-30.33393096923828,24.963111877441406,5.826286315917969
1779786631370320000,10.40331982421875,-30.39800262451172,24.498878479003906,6.04608154296875
1779786631380402000,10.41340185546875,-30.65941619873047,24.825050354003906,6.00921630859375
1779786631390484000,10.42348388671875,-30.80597686767578,24.695152282714844,5.96099853515625
1779786631400565800,10.433565673828125,-30.71417999267578,24.638946533203125,6.087547302246094
1779786631410647800,10.443647705078124,-30.511009216308594,24.68785858154297,6.1712799072265625
1779786631420729900,10.453729736328125,-30.37628936767578,24.68109893798828,5.9481048583984375
1779786631430812000,10.46381201171875,-30.344703674316406,24.724029541015625,5.7030487060546875
1779786631440894000,10.47389404296875,-30.69977569580078,24.798599243164062,5.8673095703125
1779786631450976000,10.48397607421875,-30.483665466308594,24.600875854492188,6.1360931396484375
1779786631461057800,10.494057861328125,-30.50476837158203,24.766860961914062,6.1102294921875
1779786631471139800,10.504139892578126,-30.45653533935547,24.59105682373047,5.879234313964844
1779786631481222000,10.514221923828124,-30.23670196533203,24.732154846191406,6.059913635253906
1779786631491304000,10.524303955078125,-30.357078552246094,24.893898010253906,6.105262756347656
1779786631501386000,10.534385986328125,-30.40052032470703,24.839622497558594,6.2781982421875
1779786631511468000,10.544468017578126,-30.35906219482422,24.881629943847656,6.0803375244140625
1779786631521549800,10.5545498046875,-30.46240997314453,24.831008911132812,6.4773101806640625
1779786631531631900,10.5646318359375,-30.277366638183594,24.601791381835938,6.5123748779296875
1779786631541714000,10.5747138671875,-30.247657775878906,24.706130981445312,6.204139709472656
1779786631551796000,10.5847958984375,-30.038307189941406,24.834823608398438,6.40155029296875
1779786631561878000,10.5948779296875,-30.28675079345703,24.68877410888672,6.263214111328125
1779786631571960000,10.6049599609375,-30.34941864013672,24.758384704589844,6.3250732421875
1779786631582041900,10.615041748046876,-30.077232360839844,24.88739776611328,6.4373779296875
1779786631592124000,10.6251240234375,-29.920494079589844,24.894088745117188,6.166847229003906
1779786631602206000,10.6352060546875,-29.998451232910156,24.990234375,6.24774169921875
1779786631612288000,10.6452880859375,-29.912681579589844,24.941688537597656,6.228614807128906
1779786631622370000,10.6553701171875,-30.171546936035156,24.880722045898438,6.267852783203125
1779786631632451800,10.665451904296875,-30.41167449951172,24.82306671142578,6.356742858886719
1779786631642534000,10.675533935546875,-30.40465545654297,24.66277313232422,6.2392578125
1779786631652615700,10.68561572265625,-30.252784729003906,24.799278259277344,6.091835021972656
1779786631662697700,10.69569775390625,-30.079505920410156,24.960617065429688,6.126289367675781
1779786631672779800,10.70577978515625,-30.56584930419922,24.815818786621094,6.160713195800781
1779786631682861800,10.71586181640625,-30.347862243652344,24.9454345703125,5.9990386962890625
1779786631692944000,10.72594384765625,-30.374183654785156,24.93682861328125,6.1112518310546875
1779786631703026000,10.73602587890625,-30.317970275878906,25.054336547851562,6.038238525390625
1779786631713107700,10.746107666015625,-30.26445770263672,25.123634338378906,6.097694396972656
1779786631723189800,10.756189697265626,-30.119956970214844,24.78266143798828,6.108116149902344
1779786631733271800,10.766271728515624,-30.233665466308594,24.82530975341797,6.091178894042969
1779786631743353900,10.776353759765625,-30.14002227783203,25.12267303466797,6.0042572021484375
1779786631753436000,10.786435791015625,-30.28765106201172,25.128707885742188,5.852020263671875
1779786631763518000,10.79651806640625,-29.98462677001953,24.957809448242188,5.863441467285156
1779786631773599700,10.806599853515625,-30.25267791748047,24.912078857421875,5.852363586425781
1779786631783681800,10.816681884765625,-30.08405303955078,24.711036682128906,5.909339904785156
1779786631793763800,10.826763916015626,-30.29100799560547,24.909744262695312,5.82684326171875
1779786631803846000,10.836845947265624,-30.30706024169922,24.772186279296875,6.040412902832031
1779786631813928000,10.846927978515625,-30.534645080566406,24.886459350585938,5.779121398925781
1779786631824010000,10.857010009765625,-30.448768615722656,24.898887634277344,5.526008605957031
1779786631834091800,10.867091796875,-30.313804626464844,24.744773864746094,5.276092529296875
1779786631844173800,10.877173828125,-30.563865661621094,24.522384643554688,5.4820098876953125
1779786631854255000,10.887255126953125,-30.337059020996094,24.567604064941406,5.446098327636719
1779786631864337200,10.897337158203126,-30.055809020996094,24.631744384765625,5.520881652832031
1779786631874419200,10.907419189453124,-30.29895782470703,24.660385131835938,5.702018737792969
1779786631884501200,10.917501220703125,-30.404151916503906,24.53948211669922,5.8929443359375
1779786631894583300,10.927583251953125,-30.309730529785156,24.527725219726562,5.6821136474609375
1779786631904665300,10.937665283203126,-30.14466094970703,24.501556396484375,5.737335205078125
1779786631914747100,10.9477470703125,-30.076560974121094,24.658653259277344,5.657005310058594
1779786631924829200,10.9578291015625,-30.067893981933594,24.467063903808594,5.4131622314453125
1779786631934911200,10.9679111328125,-29.967613220214844,24.4615478515625,5.580322265625
1779786631944993300,10.9779931640625,-29.880226135253906,24.548118591308594,5.624870300292969
1779786631955075300,10.988075439453125,-29.838706970214844,24.525901794433594,5.560600280761719
1779786631965157400,10.998157470703125,-29.783287048339844,24.70262908935547,5.439506530761719
1779786631975239200,11.0082392578125,-29.95690155029297,24.269821166992188,5.6360015869140625
1779786631985321200,11.0183212890625,-30.23023223876953,24.478683471679688,5.673851013183594
1779786631995403300,11.0284033203125,-30.20317840576172,24.35674285888672,5.631462097167969
1779786632005485300,11.0384853515625,-29.75965118408203,24.345726013183594,5.790351867675781
1779786632015567400,11.0485673828125,-30.08135223388672,24.41185760498047,5.8210296630859375
1779786632025649400,11.0586494140625,-30.105690002441406,24.261192321777344,5.937339782714844
1779786632035731200,11.068731201171875,-30.003562927246094,24.387229919433594,5.8826904296875
1779786632045813200,11.078813232421876,-29.57769012451172,24.630653381347656,5.822731018066406
1779786632055895300,11.088895263671875,-29.511512756347656,24.766448974609375,5.851631164550781
1779786632065977300,11.098977294921875,-29.67565155029297,24.725311279296875,5.9803009033203125
1779786632076059400,11.109059326171876,-29.05052947998047,24.674110412597656,6.07330322265625
1779786632086141400,11.119141357421874,-29.567893981933594,24.550506591796875,5.920524597167969
1779786632096223200,11.12922314453125,-29.12744903564453,24.742034912109375,5.877685546875
1779786632106305300,11.13930517578125,-29.018226623535156,24.66370391845703,5.963340759277344
1779786632116388400,11.149388427734374,-29.21247100830078,24.5357666015625,5.876609802246094
1779786632126470400,11.159470458984375,-29.234458923339844,24.820709228515625,5.8556365966796875
1779786632136552400,11.169552490234375,-29.548683166503906,25.00963592529297,5.769279479980469
1779786632146634200,11.17963427734375,-29.50000762939453,25.205116271972656,5.620719909667969
1779786632156716300,11.18971630859375,-29.187217712402344,25.179824829101562,5.48248291015625
1779786632166798300,11.19979833984375,-29.303489685058594,25.322296142578125,5.725929260253906
1779786632176880400,11.20988037109375,-29.30353546142578,25.469703674316406,5.664009094238281
1779786632186962400,11.21996240234375,-29.527626037597656,25.291053771972656,5.245155334472656
1779786632197044500,11.23004443359375,-29.04285430908203,25.434814453125,5.328483581542969
1779786632207126300,11.240126220703125,-29.303367614746094,25.33941650390625,5.386650085449219
1779786632217208000,11.2502080078125,-29.481117248535156,25.347267150878906,5.6241912841796875
1779786632227290000,11.2602900390625,-29.817039489746094,25.322105407714844,5.1386260986328125
1779786632237372200,11.2703720703125,-29.68059539794922,25.19200897216797,5.074462890625
1779786632247454200,11.2804541015625,-29.72388458251953,25.326950073242188,5.167510986328125
1779786632257536300,11.290536376953124,-29.99250030517578,25.182533264160156,5.133026123046875
1779786632267618300,11.300618408203125,-30.145240783691406,25.09906768798828,5.003562927246094
1779786632277700000,11.3107001953125,-30.286827087402344,25.210792541503906,5.1072235107421875
1779786632287782100,11.3207822265625,-29.99573516845703,25.003280639648438,5.13690185546875
1779786632297864200,11.3308642578125,-30.215293884277344,25.048873901367188,5.15362548828125
1779786632307946200,11.3409462890625,-30.218772888183594,24.93303680419922,5.32452392578125
1779786632318028300,11.3510283203125,-30.69054412841797,24.940773010253906,5.332725524902344
1779786632328110300,11.3611103515625,-30.442237854003906,24.54669189453125,5.1564178466796875
1779786632338192100,11.371192138671875,-30.252357482910156,24.58043670654297,5.3017425537109375
1779786632348274200,11.381274169921875,-30.373374938964844,24.716033935546875,5.210594177246094
1779786632358356200,11.391356201171876,-29.95336151123047,24.766876220703125,5.539436340332031
1779786632368438300,11.401438232421874,-30.505455017089844,24.88933563232422,5.794425964355469
1779786632378520300,11.411520263671875,-30.417503356933594,24.62139892578125,5.570945739746094
1779786632388602400,11.421602294921875,-29.93022918701172,24.599525451660156,5.848335266113281
1779786632398684200,11.43168408203125,-30.238121032714844,24.548599243164062,5.97454833984375
1779786632408766200,11.44176611328125,-30.490562438964844,24.502334594726562,5.998725891113281
1779786632418848300,11.45184814453125,-30.45513153076172,24.40306854248047,6.035514831542969
1779786632428930300,11.461930419921876,-30.41376495361328,24.452804565429688,5.8841400146484375
1779786632439013000,11.47201318359375,-30.14612579345703,24.507049560546875,6.172477722167969
1779786632449095200,11.48209521484375,-30.21880340576172,24.594200134277344,6.31622314453125
1779786632459177200,11.49217724609375,-30.02263641357422,24.55644989013672,6.421684265136719
1779786632469259300,11.50225927734375,-30.28961944580078,24.551429748535156,6.249153137207031
1779786632479341300,11.51234130859375,-30.120628356933594,24.452354431152344,6.418861389160156
1779786632489423400,11.52242333984375,-29.87895965576172,24.414520263671875,6.112762451171875
1779786632499505400,11.53250537109375,-29.82567596435547,24.315658569335938,6.293212890625
1779786632509587200,11.542587158203125,-30.11182403564453,24.460838317871094,6.302284240722656
1779786632519669200,11.552669189453125,-29.85796356201172,24.46656036376953,6.1859283447265625
1779786632529751300,11.562751220703126,-29.85466766357422,24.392791748046875,6.137046813964844
1779786632539833300,11.572833251953124,-29.67603302001953,24.327598571777344,6.256111145019531
1779786632549915400,11.582915283203125,-29.811378479003906,24.445083618164062,6.239341735839844
1779786632559997400,11.59299755859375,-29.767173767089844,24.69921112060547,6.292472839355469
1779786632570079200,11.603079345703126,-29.39739227294922,24.608116149902344,6.4747314453125
1779786632580161300,11.613161376953125,-29.34941864013672,24.563140869140625,6.552978515625
1779786632590243300,11.623243408203125,-29.404518127441406,24.45452117919922,6.388908386230469
1779786632600325400,11.633325439453126,-29.29564666748047,24.596778869628906,6.569664001464844
1779786632610407400,11.643407470703124,-29.41796112060547,24.458526611328125,6.167327880859375
1779786632620489500,11.653489501953125,-29.390342712402344,24.390281677246094,6.251861572265625
1779786632630571300,11.6635712890625,-29.42266082763672,24.477203369140625,6.27459716796875
1779786632640653300,11.6736533203125,-29.438941955566406,24.593772888183594,6.5852203369140625
1779786632650735400,11.6837353515625,-29.548362731933594,24.754913330078125,6.301239013671875
1779786632660817200,11.693817138671875,-29.358741760253906,24.623367309570312,6.163360595703125
1779786632670899200,11.703899169921876,-29.596092224121094,24.54668426513672,6.099555969238281
1779786632680981200,11.713981201171874,-29.73863983154297,24.73797607421875,6.425384521484375
1779786632691063000,11.72406298828125,-29.670433044433594,24.794898986816406,6.511238098144531
1779786632701146400,11.734146484375,-29.123130798339844,24.587188720703125,6.710426330566406
1779786632711228400,11.744228515625,-29.608787536621094,24.624267578125,6.723716735839844
1779786632721310500,11.754310546875,-29.85010528564453,24.764747619628906,6.712127685546875
1779786632731392300,11.764392333984375,-29.43103790283203,24.59869384765625,6.7790069580078125
1779786632741474000,11.77447412109375,-29.57898712158203,24.671287536621094,6.896034240722656
1779786632751556000,11.78455615234375,-30.151527404785156,24.50873565673828,6.644073486328125
1779786632761638100,11.79463818359375,-29.88892364501953,24.686447143554688,6.635536193847656
1779786632771720200,11.80472021484375,-29.771278381347656,24.200416564941406,6.539482116699219
1779786632781802200,11.81480224609375,-29.67278289794922,24.144195556640625,6.6952667236328125
1779786632791884300,11.82488427734375,-29.57891082763672,24.20825958251953,6.6885986328125
1779786632801966000,11.834966064453125,-29.658058166503906,24.099647521972656,6.748100280761719
1779786632812048100,11.845048095703126,-29.237892150878906,24.18115997314453,6.531044006347656
1779786632822130200,11.855130126953124,-29.15770721435547,23.96282958984375,6.44091796875
1779786632832212200,11.865212158203125,-29.555641174316406,23.87242889404297,6.372047424316406
1779786632842294300,11.875294189453125,-29.437339782714844,23.81149673461914,6.464569091796875
1779786632852376600,11.88537646484375,-29.597145080566406,23.93914031982422,6.663505554199219
1779786632862458600,11.895458740234375,-29.51555633544922,23.914207458496094,6.565635681152344
1779786632872540700,11.905540771484375,-29.709922790527344,23.963123321533203,6.798881530761719
1779786632882622700,11.915622802734376,-29.43866729736328,24.048423767089844,6.513481140136719
1779786632892704800,11.925704833984375,-29.65277862548828,23.78362274169922,6.5518646240234375
1779786632902786800,11.935786865234375,-29.69580841064453,23.80831527709961,6.426658630371094
1779786632912868900,11.945868896484376,-29.52344512939453,23.88336944580078,6.382408142089844
1779786632922951700,11.95595166015625,-29.63037872314453,23.792831420898438,6.644706726074219
1779786632933033700,11.96603369140625,-29.65654754638672,23.93088150024414,6.62371826171875
1779786632943115800,11.97611572265625,-29.73291778564453,23.801212310791016,6.702423095703125
1779786632953197800,11.98619775390625,-29.50707244873047,23.872058868408203,6.758125305175781
1779786632963279600,11.996279541015625,-30.019309997558594,23.736343383789062,6.827751159667969
1779786632973361700,12.006361572265625,-29.936927795410156,23.724876403808594,6.837425231933594
1779786632983443700,12.016443603515626,-29.81439971923828,23.477672576904297,6.684745788574219
1779786632993525800,12.02652587890625,-29.574180603027344,23.533340454101562,6.774208068847656
1779786633003607800,12.03660791015625,-29.774009704589844,23.600337982177734,7.089622497558594
1779786633013689600,12.046689697265625,-29.75701141357422,23.662696838378906,7.0432891845703125
1779786633023771600,12.056771728515624,-29.764549255371094,23.580413818359375,7.066520690917969
1779786633033853400,12.066853515625,-29.665000915527344,23.53223419189453,7.027641296386719
1779786633043935500,12.076935546875,-29.55889129638672,23.631526947021484,6.9857940673828125
1779786633054017500,12.087017578125,-29.562400817871094,23.695743560791016,7.1501007080078125
1779786633064099600,12.097099609375,-29.69910430908203,23.69974136352539,6.584541320800781
1779786633074181600,12.107181640625,-29.53998565673828,23.48031234741211,6.494041442871094
1779786633084263700,12.117263671875,-29.899192810058594,23.58547592163086,6.578582763671875
1779786633094345500,12.127345458984376,-29.747764587402344,23.655620574951172,6.480690002441406
1779786633104428500,12.137428466796875,-29.46729278564453,23.538665771484375,6.2778472900390625
1779786633114510600,12.147510498046875,-29.44275665283203,23.880386352539062,6.390388488769531
1779786633124592600,12.157592529296876,-29.32392120361328,23.70107650756836,6.01824951171875
1779786633134674400,12.16767431640625,-29.367576599121094,23.909961700439453,5.988822937011719
1779786633144756500,12.177756591796875,-29.485267639160156,23.95928192138672,5.934715270996094
1779786633154838500,12.187838623046876,-29.54149627685547,23.876365661621094,6.095970153808594
1779786633164920600,12.197920654296874,-29.53003692626953,23.887237548828125,6.079132080078125
1779786633175002600,12.208002685546875,-29.328819274902344,23.905559539794922,6.2339630126953125
1779786633185084700,12.218084716796875,-29.244117736816406,23.71160125732422,5.937507629394531
1779786633195166500,12.22816650390625,-28.988975524902344,23.94226837158203,6.165245056152344
1779786633205248500,12.23824853515625,-29.64958953857422,24.062400817871094,6.3029022216796875
1779786633215330600,12.24833056640625,-29.752403259277344,24.217376708984375,6.22235107421875
1779786633225412600,12.25841259765625,-29.58983612060547,23.98651885986328,6.2091217041015625
1779786633235494700,12.26849462890625,-29.85718536376953,23.956893920898438,6.477592468261719
1779786633245576700,12.27857666015625,-29.47791290283203,24.110977172851562,6.172332763671875
1779786633255658800,12.28865869140625,-29.76190948486328,24.003822326660156,5.983146667480469
1779786633265740500,12.298740478515626,-29.75908660888672,24.125526428222656,6.0286712646484375
1779786633275823600,12.30882373046875,-29.87102508544922,24.14452362060547,5.954902648925781
1779786633285905700,12.31890576171875,-29.894447326660156,24.334518432617188,6.018577575683594
1779786633295987700,12.32898779296875,-30.08849334716797,24.32837677001953,5.8034515380859375
1779786633306069500,12.339069580078124,-29.88123321533203,24.216094970703125,5.9729766845703125
1779786633316151600,12.349151611328125,-29.63262176513672,24.099037170410156,6.13031005859375
1779786633326233600,12.359233642578126,-29.68126678466797,24.24909210205078,6.0535736083984375
1779786633336315600,12.369315673828124,-29.79039764404297,24.099281311035156,6.229682922363281
1779786633346397700,12.379397705078125,-29.863243103027344,24.147964477539062,6.413063049316406
1779786633356479700,12.389479736328125,-29.86890411376953,24.109710693359375,6.0159912109375
1779786633366561500,12.3995615234375,-29.508155822753906,24.16851043701172,6.366233825683594
1779786633376643600,12.4096435546875,-29.975975036621094,24.149757385253906,6.274208068847656
1779786633386725600,12.4197255859375,-30.27458953857422,23.819778442382812,6.2714385986328125
1779786633396807700,12.4298076171875,-30.209205627441406,23.59398651123047,6.143951416015625
1779786633406889700,12.4398896484375,-30.228126525878906,23.446117401123047,6.098060607910156
1779786633416971800,12.4499716796875,-30.58538055419922,23.635791778564453,5.8882904052734375
1779786633427053600,12.460053466796875,-30.632347106933594,23.418872833251953,6.2630462646484375
1779786633437136600,12.47013671875,-30.96375274658203,23.319507598876953,6.3452301025390625
1779786633447218700,12.48021875,-30.70136260986328,23.264156341552734,5.933143615722656
1779786633457300700,12.49030078125,-30.38697052001953,23.219539642333984,5.726753234863281
1779786633467382800,12.5003828125,-30.34833526611328,23.224273681640625,5.8219146728515625
1779786633477464600,12.510464599609374,-30.435264587402344,23.16830062866211,5.740058898925781
1779786633487546600,12.520546630859375,-30.58367156982422,23.260635375976562,5.810462951660156
1779786633497628700,12.530628662109375,-30.79674530029297,23.21136474609375,5.758026123046875
1779786633507710700,12.540710693359374,-30.77033233642578,23.232166290283203,5.996101379394531
1779786633517792800,12.550792724609375,-30.469581604003906,23.322925567626953,6.082725524902344
1779786633527874800,12.560874755859375,-30.513877868652344,23.346004486083984,6.0548095703125
1779786633537956600,12.57095654296875,-30.60271453857422,23.186649322509766,6.11712646484375
1779786633548038700,12.58103857421875,-30.80779266357422,23.218788146972656,6.019737243652344
1779786633558120700,12.59112060546875,-30.73505401611328,23.027584075927734,5.9208526611328125
1779786633568203800,12.601203857421876,-30.728370666503906,23.268386840820312,6.0486907958984375
1779786633578285600,12.61128564453125,-30.673133850097656,23.26009750366211,5.8975830078125
1779786633588367600,12.62136767578125,-30.591957092285156,23.234420776367188,6.150627136230469
1779786633598449700,12.63144970703125,-30.43805694580078,23.419025421142578,6.059486389160156
1779786633608531700,12.64153173828125,-30.13721466064453,23.7099609375,6.171699523925781
1779786633618613800,12.65161376953125,-30.02727508544922,23.71994400024414,6.321929931640625
1779786633628695800,12.66169580078125,-30.098915100097656,23.57868194580078,6.162139892578125
1779786633638777900,12.67177783203125,-29.878623962402344,23.51169204711914,6.029304504394531
1779786633648859600,12.681859619140624,-29.837684631347656,23.451122283935547,5.688117980957031
1779786633658941700,12.691941650390625,-30.117408752441406,23.5975341796875,5.86773681640625
1779786633669023700,12.702023681640625,-29.951988220214844,23.540950775146484,5.790397644042969
1779786633679105500,12.71210546875,-30.043434143066406,23.623069763183594,5.975547790527344
1779786633689187600,12.7221875,-29.718406677246094,23.788631439208984,6.054191589355469
1779786633699269600,12.73226953125,-29.509544372558594,23.92510986328125,5.878974914550781
1779786633709352700,12.742352783203126,-29.305152893066406,23.92975616455078,6.003501892089844
1779786633719434800,12.752434814453125,-29.290977478027344,23.69235610961914,6.174781799316406
1779786633729516800,12.762516845703125,-29.584251403808594,23.61365509033203,6.0047607421875
1779786633739598800,12.772598876953126,-29.52332305908203,23.56045150756836,6.0678253173828125
1779786633749680600,12.7826806640625,-29.30963897705078,23.388774871826172,5.96966552734375
1779786633759762400,12.792762451171875,-29.392738342285156,23.603588104248047,5.871650695800781
1779786633769844500,12.802844482421875,-29.47541046142578,23.621726989746094,5.817085266113281
1779786633779926500,12.812926513671876,-29.750511169433594,23.802146911621094,5.957908630371094
1779786633790008600,12.823008544921874,-29.70317840576172,23.54098129272461,5.717109680175781
1779786633800090600,12.833090576171875,-29.470008850097656,23.58007049560547,5.7810211181640625
1779786633810172700,12.843172607421875,-29.811241149902344,23.779495239257812,5.7150421142578125
1779786633820254500,12.85325439453125,-29.398841857910156,23.954952239990234,5.777534484863281
1779786633830336500,12.86333642578125,-29.571617126464844,24.018150329589844,5.5663299560546875
1779786633840419600,12.873419677734375,-29.485618591308594,23.783226013183594,5.545074462890625
1779786633850501600,12.883501708984374,-29.428260803222656,23.791728973388672,5.4929046630859375
1779786633860583700,12.893583740234375,-29.93463897705078,23.764469146728516,5.6037139892578125
1779786633870665700,12.903665771484375,-29.817222595214844,23.690975189208984,5.877967834472656
1779786633880747800,12.913747802734376,-29.64928436279297,23.769535064697266,5.810722351074219
1779786633890829600,12.92382958984375,-29.684364318847656,23.595809936523438,5.512237548828125
1779786633900911600,12.93391162109375,-29.373619079589844,23.813175201416016,5.583793640136719
1779786633910993700,12.94399365234375,-29.69940948486328,23.880027770996094,5.760292053222656
1779786633921075500,12.954075439453124,-29.55878448486328,23.87618637084961,5.710563659667969
1779786633931157500,12.964157470703125,-29.65380096435547,23.66579818725586,5.783790588378906
1779786633941239600,12.974239501953125,-29.67768096923828,23.559024810791016,5.6954193115234375
1779786633951321600,12.984321533203126,-29.71892547607422,23.925235748291016,5.764396667480469
