time,seconds_elapsed,z,y,x
1779786621015482400,0.048482421875,-139.92544555664062,69.66401672363281,-100.88687133789062
1779786621025577500,0.058577392578125,-139.93125915527344,70.02574157714844,-101.29469299316406
1779786621035674600,0.068674560546875,-139.8059539794922,70.02252197265625,-101.79960632324219
1779786621045771500,0.078771484375,-140.34913635253906,69.69683837890625,-101.39788818359375
1779786621055867400,0.088867431640625,-140.11587524414062,69.68620300292969,-101.43984985351562
1779786621065963500,0.098963623046875,-140.1892547607422,69.78323364257812,-101.71798706054688
1779786621076059600,0.1090595703125,-140.36289978027344,69.86576843261719,-101.87432861328125
1779786621086155500,0.119155517578125,-140.81739807128906,69.67253112792969,-101.96052551269531
1779786621096252400,0.12925244140625,-141.1988067626953,69.64157104492188,-101.95823669433594
1779786621106349600,0.139349609375,-140.87042236328125,69.86483764648438,-101.65582275390625
1779786621116447500,0.149447509765625,-140.23851013183594,69.91845703125,-101.9210205078125
1779786621126544400,0.15954443359375,-140.31175231933594,69.53547668457031,-101.99162292480469
1779786621136641500,0.1696416015625,-140.80197143554688,69.75106811523438,-102.13409423828125
1779786621146739500,0.179739501953125,-140.6112518310547,69.513671875,-102.36677551269531
1779786621156836600,0.189836669921875,-140.74375915527344,69.37632751464844,-102.0406494140625
1779786621166933500,0.19993359375,-140.3016357421875,69.27510070800781,-101.75749206542969
1779786621177029600,0.210029541015625,-140.9344024658203,69.34466552734375,-101.82235717773438
1779786621187126300,0.220126220703125,-141.00221252441406,69.37051391601562,-101.45118713378906
1779786621197224700,0.230224609375,-141.14210510253906,69.50440979003906,-101.5953369140625
1779786621207319600,0.240319580078125,-140.71719360351562,69.16110229492188,-101.67404174804688
1779786621217416400,0.25041650390625,-140.8056640625,69.36236572265625,-101.84552001953125
1779786621227513600,0.260513671875,-140.83702087402344,69.67829895019531,-101.90957641601562
1779786621237611500,0.270611572265625,-140.95631408691406,69.32176208496094,-101.76969909667969
1779786621247708700,0.280708740234375,-141.0916748046875,69.22969055175781,-101.93130493164062
1779786621257806600,0.290806640625,-140.19308471679688,69.14016723632812,-102.04591369628906
1779786621267903500,0.300903564453125,-140.7265625,69.24346923828125,-101.94345092773438
1779786621278000600,0.311000732421875,-140.44972229003906,69.12786865234375,-102.13381958007812
1779786621288097500,0.32109765625,-141.0046844482422,68.96893310546875,-102.10206604003906
1779786621298195700,0.33119580078125,-139.97970581054688,68.966064453125,-102.6505126953125
1779786621308292600,0.341292724609375,-140.06851196289062,68.78009033203125,-102.49778747558594
1779786621318388500,0.351388427734375,-140.6853790283203,68.54928588867188,-102.7882080078125
1779786621328484600,0.361484619140625,-140.54165649414062,68.35586547851562,-102.17385864257812
1779786621338581500,0.37158154296875,-140.81072998046875,68.52947998046875,-102.2332763671875
1779786621348678700,0.3816787109375,-140.90065002441406,68.52932739257812,-102.16049194335938
1779786621358775600,0.391775634765625,-140.921875,68.274169921875,-101.89138793945312
1779786621368872400,0.40187255859375,-140.84423828125,68.56278991699219,-102.03775024414062
1779786621378969300,0.41196923828125,-141.0177764892578,68.58462524414062,-102.27503967285156
1779786621389067500,0.422067626953125,-140.61834716796875,68.4638671875,-102.25215148925781
1779786621399165400,0.43216552734375,-140.7615509033203,68.6561279296875,-102.44993591308594
1779786621409262300,0.442262451171875,-140.65052795410156,68.43400573730469,-102.06967163085938
1779786621419359500,0.452359375,-141.06532287597656,68.53779602050781,-102.53239440917969
1779786621429457400,0.46245751953125,-140.62855529785156,68.49575805664062,-102.10740661621094
1779786621439553500,0.472553466796875,-140.4987335205078,68.1517333984375,-101.94287109375
1779786621449650400,0.482650390625,-141.059326171875,68.54524230957031,-102.41583251953125
1779786621459747600,0.49274755859375,-140.9642333984375,68.96115112304688,-102.12281799316406
1779786621469844500,0.502844482421875,-141.0083465576172,68.59625244140625,-102.04827880859375
1779786621479941600,0.512941650390625,-140.71902465820312,68.75485229492188,-101.80511474609375
1779786621490037500,0.52303759765625,-141.0894317626953,68.86453247070312,-101.99473571777344
1779786621500133600,0.533133544921875,-140.69676208496094,68.70016479492188,-102.25460815429688
1779786621510230500,0.54323046875,-140.19686889648438,68.43521118164062,-102.36497497558594
1779786621520325400,0.553325439453125,-140.43112182617188,68.66455078125,-102.3060302734375
1779786621530422500,0.563422607421875,-140.4461212158203,68.18338012695312,-102.20120239257812
1779786621540519400,0.57351953125,-140.04713439941406,68.32498168945312,-101.97587585449219
1779786621550617300,0.583617431640625,-140.11990356445312,68.22808837890625,-102.29869079589844
1779786621560713500,0.59371337890625,-140.564697265625,68.29510498046875,-102.46041870117188
1779786621570811400,0.603811279296875,-139.6734161376953,68.65509033203125,-102.48713684082031
1779786621580909600,0.61390966796875,-140.45362854003906,68.57011413574219,-102.63224792480469
1779786621591005400,0.62400537109375,-140.1695556640625,68.23709106445312,-102.3367919921875
1779786621601102600,0.6341025390625,-139.97726440429688,68.14602661132812,-102.12384033203125
1779786621611199700,0.64419970703125,-140.51498413085938,67.95597839355469,-102.39633178710938
1779786621621297700,0.654297607421875,-140.7225799560547,68.23690795898438,-102.674560546875
1779786621631394600,0.66439453125,-140.1217498779297,68.46340942382812,-102.68217468261719
1779786621641490400,0.674490478515625,-140.42955017089844,68.56880187988281,-102.80499267578125
1779786621651587600,0.684587646484375,-140.3445587158203,68.42193603515625,-102.75726318359375
1779786621661683500,0.694683349609375,-140.500732421875,68.58320617675781,-102.21784973144531
1779786621671778600,0.704778564453125,-140.6327667236328,68.53227233886719,-102.18925476074219
1779786621681874400,0.71487451171875,-140.815673828125,68.39456176757812,-101.93002319335938
1779786621691970600,0.724970458984375,-140.6335906982422,68.55848693847656,-102.08280944824219
1779786621702067700,0.735067626953125,-140.72793579101562,68.80094909667969,-101.72930908203125
1779786621712162600,0.74516259765625,-141.02513122558594,69.02354431152344,-101.58602905273438
1779786621722258700,0.7552587890625,-141.15328979492188,69.25970458984375,-101.27159118652344
1779786621732354300,0.765354248046875,-140.60350036621094,69.03231811523438,-101.19821166992188
1779786621742450400,0.775450439453125,-140.76197814941406,69.18006896972656,-101.35395812988281
1779786621752549400,0.78554931640625,-140.85899353027344,69.237548828125,-101.05078125
1779786621762644500,0.79564453125,-140.7384490966797,69.26687622070312,-101.02882385253906
1779786621772741600,0.80574169921875,-140.76214599609375,69.36381530761719,-100.76741027832031
1779786621782837500,0.81583740234375,-140.48190307617188,69.35502624511719,-100.89923095703125
1779786621792934400,0.825934326171875,-141.13497924804688,69.15769958496094,-100.95980834960938
1779786621803029500,0.836029541015625,-140.16128540039062,69.4453125,-100.8724365234375
1779786621813125600,0.846125732421875,-140.04957580566406,69.42707824707031,-100.78543090820312
1779786621823219500,0.856219482421875,-140.18890380859375,69.51345825195312,-100.98814392089844
1779786621833314300,0.866314208984375,-140.00132751464844,69.18656921386719,-101.20011901855469
1779786621843409200,0.8764091796875,-140.2036895751953,68.70698547363281,-101.7847900390625
1779786621853506000,0.886506103515625,-140.0096893310547,68.96321105957031,-101.42948913574219
1779786621863602200,0.896602294921875,-140.04981994628906,68.96023559570312,-101.20516967773438
1779786621873698300,0.9066982421875,-140.25494384765625,68.98486328125,-101.09834289550781
1779786621883795000,0.916794921875,-140.00656127929688,69.20008850097656,-101.22523498535156
1779786621893891000,0.92689111328125,-140.65206909179688,68.74711608886719,-101.34381103515625
1779786621903987200,0.9369873046875,-140.79725646972656,68.93905639648438,-101.452392578125
1779786621914083300,0.947083251953125,-141.2882080078125,68.78619384765625,-101.20960998535156
1779786621924180000,0.957179931640625,-141.3839111328125,68.83901977539062,-101.4046630859375
1779786621934278100,0.967278076171875,-141.3941192626953,69.30813598632812,-100.92240905761719
1779786621944375000,0.977375,-141.94802856445312,68.9141845703125,-100.98121643066406
1779786621954470100,0.98747021484375,-141.46292114257812,68.98899841308594,-100.59051513671875
1779786621964566300,0.997566162109375,-141.83755493164062,69.03382873535156,-100.94203186035156
1779786621974662100,1.007662109375,-141.8752899169922,69.13615417480469,-100.44557189941406
1779786621984759000,1.017759033203125,-142.59915161132812,69.09465026855469,-100.01910400390625
1779786621994857000,1.02785693359375,-142.81634521484375,68.9776611328125,-99.67324829101562
1779786622004954000,1.0379541015625,-142.5084228515625,68.828369140625,-99.44908142089844
1779786622015051000,1.048051025390625,-142.819091796875,68.93290710449219,-99.7247314453125
1779786622025148200,1.058148193359375,-142.86325073242188,68.70126342773438,-99.43656921386719
1779786622035245000,1.0682451171875,-143.07333374023438,68.98956298828125,-99.41377258300781
1779786622045342200,1.07834228515625,-142.65829467773438,68.77973937988281,-99.14619445800781
1779786622055437000,1.08843701171875,-142.8802490234375,69.06546020507812,-99.87043762207031
1779786622065535000,1.098534912109375,-143.02255249023438,68.72817993164062,-99.49691772460938
1779786622075633200,1.108633056640625,-142.697509765625,68.81338500976562,-99.44532775878906
1779786622085730000,1.11872998046875,-142.61669921875,68.89299011230469,-99.24794006347656
1779786622095826200,1.128826171875,-142.59613037109375,69.22573852539062,-99.49758911132812
1779786622105923000,1.138923095703125,-142.46786499023438,69.17022705078125,-99.48558044433594
1779786622116019200,1.149019287109375,-142.77410888671875,68.99559020996094,-99.06753540039062
1779786622126116000,1.1591162109375,-142.6194305419922,68.97148132324219,-99.56051635742188
1779786622136213000,1.169212890625,-142.33717346191406,69.1080322265625,-99.23141479492188
1779786622146310100,1.17931005859375,-142.86572265625,68.76231384277344,-99.2672119140625
1779786622156407000,1.189406982421875,-143.189453125,68.67256164550781,-99.43948364257812
1779786622166504200,1.199504150390625,-142.67184448242188,68.84715270996094,-99.185546875
1779786622176602000,1.20960205078125,-143.0861358642578,69.10546875,-98.89495849609375
1779786622186699300,1.21969921875,-143.19830322265625,68.96986389160156,-99.13444519042969
1779786622196796200,1.229796142578125,-143.42373657226562,68.84414672851562,-99.38319396972656
1779786622206893300,1.239893310546875,-143.55401611328125,69.11373901367188,-99.10237121582031
1779786622216990200,1.249990234375,-143.03768920898438,68.94337463378906,-99.03286743164062
1779786622227086000,1.260086181640625,-143.71348571777344,68.57200622558594,-99.05838012695312
1779786622237185300,1.270185302734375,-143.33355712890625,68.58930969238281,-99.01406860351562
1779786622247283200,1.280283203125,-143.05291748046875,68.88462829589844,-98.67816162109375
1779786622257381000,1.290381103515625,-142.8182830810547,69.0975341796875,-98.79435729980469
1779786622267477000,1.30047705078125,-143.03271484375,69.0447998046875,-98.39111328125
1779786622277575200,1.3105751953125,-142.85169982910156,68.902587890625,-98.54483032226562
1779786622287672000,1.320672119140625,-142.7189483642578,68.95413208007812,-98.54180908203125
1779786622297770000,1.33077001953125,-143.06561279296875,69.06163024902344,-98.95387268066406
1779786622307867100,1.3408671875,-142.72531127929688,68.79548645019531,-98.78997802734375
1779786622317964000,1.350964111328125,-142.38047790527344,69.10943603515625,-99.38200378417969
1779786622328061200,1.361061279296875,-142.3411102294922,68.96846008300781,-99.18161010742188
1779786622338157000,1.371156982421875,-142.00218200683594,69.47303771972656,-99.21119689941406
1779786622348254200,1.381254150390625,-141.45291137695312,69.30120849609375,-99.68807983398438
1779786622358350000,1.39135009765625,-141.4200897216797,69.15597534179688,-99.5850830078125
1779786622368448000,1.401447998046875,-141.1935577392578,69.41943359375,-99.84892272949219
1779786622378544000,1.411544189453125,-140.6114501953125,69.08468627929688,-99.718505859375
1779786622388642000,1.42164208984375,-140.55712890625,69.24496459960938,-99.96604919433594
1779786622398740000,1.431739990234375,-140.7887725830078,68.87042236328125,-99.972900390625
1779786622408835000,1.4418349609375,-140.5040283203125,69.30609130859375,-99.92214965820312
1779786622418933200,1.451933349609375,-140.91903686523438,68.99029541015625,-99.68428039550781
1779786622429031200,1.46203125,-141.42591857910156,69.04278564453125,-99.73426818847656
1779786622439127300,1.472127197265625,-141.2754669189453,69.27098083496094,-99.60853576660156
1779786622449222100,1.48222216796875,-141.8251953125,69.39680480957031,-99.46104431152344
1779786622459319000,1.492319091796875,-142.1385040283203,69.60627746582031,-99.09144592285156
1779786622469416200,1.502416259765625,-141.7248992919922,70.03036499023438,-98.54069519042969
1779786622479510000,1.512510009765625,-142.1111602783203,69.79281616210938,-97.964111328125
1779786622489605000,1.522605224609375,-142.75975036621094,70.16897583007812,-96.99166870117188
1779786622499701000,1.532700927734375,-142.88221740722656,70.28138732910156,-96.64137268066406
1779786622509798100,1.542798095703125,-143.2833251953125,70.39540100097656,-95.85385131835938
1779786622519895000,1.55289501953125,-143.59451293945312,70.9061279296875,-95.30430603027344
1779786622529993000,1.562992919921875,-143.44752502441406,71.31361389160156,-94.97828674316406
1779786622540090000,1.573090087890625,-143.6341552734375,71.6094970703125,-94.21931457519531
1779786622550185200,1.583185302734375,-143.32369995117188,71.84376525878906,-93.23471069335938
1779786622560282000,1.5932822265625,-143.65093994140625,71.81581115722656,-92.75898742675781
1779786622570378000,1.6033779296875,-143.916259765625,72.19537353515625,-92.09602355957031
1779786622580475100,1.61347509765625,-143.3903350830078,72.45390319824219,-91.08152770996094
1779786622590571300,1.6235712890625,-142.8854522705078,73.31645202636719,-89.78761291503906
1779786622600668200,1.633668212890625,-142.68638610839844,73.8804931640625,-88.67060852050781
1779786622610766000,1.64376611328125,-141.61770629882812,74.46852111816406,-87.44392395019531
1779786622620862200,1.6538623046875,-141.2306365966797,74.99211120605469,-86.2823486328125
1779786622630960000,1.663960205078125,-140.97080993652344,75.64376831054688,-85.16357421875
1779786622641057300,1.674057373046875,-140.5836181640625,76.19566345214844,-84.30043029785156
1779786622651153200,1.684153076171875,-139.69044494628906,76.74166870117188,-83.08476257324219
1779786622661250000,1.69425,-139.43951416015625,76.86798095703125,-82.53427124023438
1779786622671347200,1.70434716796875,-138.38328552246094,77.39509582519531,-81.71684265136719
1779786622681444000,1.714444091796875,-138.03277587890625,77.85984802246094,-80.80059814453125
1779786622691539000,1.7245390625,-137.15133666992188,78.20794677734375,-79.34832763671875
1779786622701634000,1.734634033203125,-136.2349853515625,78.62898254394531,-78.53749084472656
1779786622711732200,1.744732177734375,-135.64068603515625,78.89715576171875,-77.50643920898438
1779786622721828000,1.754828125,-135.29832458496094,79.06910705566406,-76.72227478027344
1779786622731923200,1.764923095703125,-134.5516815185547,79.41456604003906,-75.85157775878906
1779786622742018300,1.775018310546875,-133.4706573486328,79.54719543457031,-74.75216674804688
1779786622752114200,1.7851142578125,-133.86734008789062,79.740966796875,-73.97702026367188
1779786622762209300,1.795209228515625,-133.07664489746094,79.51011657714844,-72.89154052734375
1779786622772306200,1.80530615234375,-132.79884338378906,79.50241088867188,-71.94342041015625
1779786622782403300,1.8154033203125,-132.6844024658203,79.66230773925781,-70.92031860351562
1779786622792498200,1.825498291015625,-131.6470184326172,78.948974609375,-70.39042663574219
1779786622802595000,1.835594970703125,-130.87193298339844,79.03736877441406,-69.128662109375
1779786622812691200,1.845691162109375,-130.50303649902344,79.47607421875,-68.34053039550781
1779786622822786000,1.8557861328125,-130.27330017089844,79.16755676269531,-67.77964782714844
1779786622832881200,1.865881103515625,-130.42535400390625,78.99079895019531,-67.14649963378906
1779786622842975500,1.8759755859375,-130.40576171875,78.80870056152344,-66.68623352050781
1779786622853072400,1.886072265625,-130.18040466308594,78.57246398925781,-66.0130615234375
1779786622863168500,1.89616845703125,-129.8098602294922,78.42257690429688,-65.41310119628906
1779786622873263400,1.906263427734375,-129.94036865234375,78.78764343261719,-65.12797546386719
1779786622883360500,1.916360595703125,-129.62582397460938,78.11286926269531,-65.09745788574219
1779786622893456400,1.926456298828125,-128.9062042236328,77.89605712890625,-64.452880859375
1779786622903552300,1.93655224609375,-128.4969940185547,77.86500549316406,-64.19796752929688
1779786622913648400,1.9466484375,-128.71371459960938,77.56039428710938,-64.18089294433594
1779786622923744500,1.95674462890625,-128.362060546875,77.63236999511719,-63.79670715332031
1779786622933840400,1.96684033203125,-128.2044677734375,77.76210021972656,-63.40751647949219
1779786622943938600,1.9769384765625,-129.00436401367188,77.62181091308594,-63.21441650390625
1779786622954035200,1.98703515625,-128.97581481933594,77.51393127441406,-62.62409973144531
1779786622964133400,1.99713330078125,-129.01829528808594,77.26690673828125,-62.49858093261719
1779786622974230300,2.007230224609375,-128.98477172851562,77.15705871582031,-62.39289855957031
1779786622984326400,2.017326416015625,-129.09799194335938,77.12132263183594,-61.60137939453125
1779786622994423300,2.02742333984375,-128.85833740234375,76.77703857421875,-61.77947998046875
1779786623004520400,2.0375205078125,-128.70669555664062,76.19578552246094,-60.75108337402344
1779786623014617300,2.047617431640625,-129.5826873779297,75.92616271972656,-60.52748107910156
1779786623024713200,2.057713134765625,-129.9407501220703,75.55487060546875,-60.153472900390625
1779786623034810400,2.067810302734375,-130.21385192871094,74.79788208007812,-59.82167053222656
1779786623044906500,2.077906494140625,-131.45008850097656,74.47991943359375,-59.67070007324219
1779786623055001600,2.088001708984375,-132.21322631835938,73.61933898925781,-59.205291748046875
1779786623065098200,2.09809814453125,-133.6505584716797,73.43446350097656,-59.16603088378906
1779786623075196400,2.108196533203125,-134.54725646972656,72.57205200195312,-59.384368896484375
1779786623085294600,2.118294677734375,-135.75677490234375,72.07620239257812,-59.55589294433594
1779786623095390200,2.12839013671875,-136.62094116210938,71.96932983398438,-60.06587219238281
1779786623105487400,2.1384873046875,-137.38287353515625,70.76109313964844,-59.8072509765625
1779786623115583500,2.14858349609375,-138.25758361816406,70.09403991699219,-60.100311279296875
1779786623125680400,2.158680419921875,-139.92642211914062,69.59207153320312,-59.763519287109375
1779786623135777500,2.168777587890625,-140.20726013183594,69.1053466796875,-60.28507995605469
1779786623145874400,2.17887451171875,-141.0293731689453,68.66419982910156,-60.27067565917969
1779786623155969300,2.18896923828125,-141.52017211914062,67.81924438476562,-60.662567138671875
1779786623166066400,2.19906640625,-142.27003479003906,67.5960693359375,-60.56764221191406
1779786623176164400,2.209164306640625,-142.1011505126953,67.15548706054688,-60.60333251953125
1779786623186261500,2.219261474609375,-142.98410034179688,66.45278930664062,-60.36433410644531
1779786623196358400,2.2293583984375,-143.65455627441406,65.95449829101562,-60.90155029296875
1779786623206455600,2.23945556640625,-144.13856506347656,65.630615234375,-60.77961730957031
1779786623216552400,2.249552490234375,-144.94769287109375,65.46380615234375,-61.275390625
1779786623226650400,2.259650390625,-145.4099884033203,65.31944274902344,-61.751251220703125
1779786623236747500,2.26974755859375,-146.53790283203125,65.54032897949219,-61.91401672363281
1779786623246843400,2.279843505859375,-146.54708862304688,65.54231262207031,-63.05723571777344
1779786623256939500,2.289939453125,-146.20986938476562,65.17430114746094,-63.07099914550781
1779786623267036400,2.300036376953125,-145.84230041503906,65.32081604003906,-63.99391174316406
1779786623277134300,2.31013427734375,-146.29632568359375,65.15238952636719,-64.02127075195312
1779786623287230500,2.32023046875,-147.33485412597656,65.25978088378906,-64.31637573242188
1779786623297328400,2.330328369140625,-146.81350708007812,65.20486450195312,-64.84274291992188
1779786623307425500,2.340425537109375,-147.0725555419922,64.44769287109375,-64.88606262207031
1779786623317522200,2.350522216796875,-147.48692321777344,64.75225830078125,-65.49885559082031
1779786623327619300,2.360619384765625,-147.4314727783203,64.82447814941406,-66.0823974609375
1779786623337716200,2.37071630859375,-148.06248474121094,65.11155700683594,-66.98703002929688
1779786623347814400,2.380814453125,-148.34054565429688,64.9036865234375,-67.12478637695312
1779786623357911300,2.390911376953125,-148.36526489257812,64.64231872558594,-67.909912109375
1779786623368007400,2.40100732421875,-148.0636444091797,64.89921569824219,-68.25044250488281
1779786623378104600,2.4111044921875,-148.31993103027344,64.59201049804688,-68.48208618164062
1779786623388201500,2.421201416015625,-148.35337829589844,64.52052307128906,-68.54270935058594
1779786623398297300,2.43129736328125,-148.4148406982422,64.74635314941406,-68.89466857910156
1779786623408394200,2.441394287109375,-148.57366943359375,64.59825134277344,-69.11555480957031
1779786623418492400,2.451492431640625,-149.01112365722656,64.71649169921875,-69.66749572753906
1779786623428590300,2.46159033203125,-148.40708923339844,64.33988952636719,-69.64492797851562
1779786623438689500,2.471689453125,-148.44815063476562,64.29060363769531,-70.09127807617188
1779786623448787500,2.481787353515625,-148.5291748046875,64.80038452148438,-70.84603881835938
1779786623458884400,2.49188427734375,-149.4030303955078,64.77867126464844,-70.95805358886719
1779786623468980200,2.501980224609375,-149.2459259033203,64.6224365234375,-70.88587951660156
1779786623479078400,2.512078369140625,-149.83018493652344,64.734619140625,-71.355224609375
1779786623489177300,2.52217724609375,-149.49835205078125,64.88533020019531,-71.52001953125
1779786623499275500,2.532275634765625,-149.86143493652344,64.93470764160156,-71.49160766601562
1779786623509371400,2.542371337890625,-149.8157501220703,65.01472473144531,-71.91410827636719
1779786623519468300,2.55246826171875,-149.42332458496094,64.78157043457031,-72.04290771484375
1779786623529565400,2.5625654296875,-149.71090698242188,64.83549499511719,-72.25035095214844
1779786623539662300,2.572662353515625,-149.51893615722656,65.15704345703125,-72.13888549804688
1779786623549760300,2.58276025390625,-149.95626831054688,64.97659301757812,-72.21119689941406
1779786623559856400,2.5928564453125,-149.85072326660156,64.7982177734375,-71.89828491210938
1779786623569953500,2.60295361328125,-150.0305633544922,64.77632141113281,-72.22979736328125
1779786623580050400,2.613050537109375,-150.18069458007812,64.69706726074219,-71.77676391601562
1779786623590148400,2.6231484375,-150.0714874267578,64.48660278320312,-72.2904052734375
1779786623600244200,2.633244140625,-149.6395721435547,64.70271301269531,-72.18356323242188
1779786623610340400,2.64334033203125,-149.77020263671875,64.65664672851562,-71.99736022949219
1779786623620436500,2.6534365234375,-149.60890197753906,64.50093078613281,-72.22071838378906
1779786623630532600,2.66353271484375,-149.98069763183594,64.42694091796875,-72.07768249511719
1779786623640629200,2.673629150390625,-149.94342041015625,64.49673461914062,-71.86447143554688
1779786623650725400,2.683725341796875,-149.912841796875,64.55584716796875,-72.67582702636719
1779786623660821500,2.693821533203125,-150.29974365234375,64.506591796875,-72.21815490722656
1779786623670919400,2.70391943359375,-149.93724060058594,64.71533203125,-72.37437438964844
1779786623681017300,2.714017333984375,-150.1691436767578,64.70098876953125,-72.341064453125
1779786623691114500,2.724114501953125,-149.8155517578125,64.711669921875,-72.68788146972656
1779786623701210600,2.734210693359375,-149.8370361328125,64.95912170410156,-72.498291015625
1779786623711307300,2.744307373046875,-150.12950134277344,64.97547912597656,-72.62535095214844
1779786623721404400,2.754404296875,-149.86509704589844,64.86726379394531,-72.79766845703125
1779786623731501300,2.764501220703125,-149.96656799316406,64.79019165039062,-72.75605773925781
1779786623741598500,2.774598388671875,-149.74302673339844,64.71621704101562,-72.90847778320312
1779786623751695400,2.7846953125,-149.52166748046875,64.97065734863281,-72.64947509765625
1779786623761792500,2.79479248046875,-149.93775939941406,64.93643188476562,-72.84329223632812
1779786623771888400,2.804888427734375,-149.9152069091797,64.70562744140625,-72.85116577148438
1779786623781986600,2.814986572265625,-150.12799072265625,64.74040222167969,-73.15068054199219
1779786623792084500,2.82508447265625,-149.74913024902344,64.92189025878906,-72.71066284179688
1779786623802181400,2.835181396484375,-150.10064697265625,64.76983642578125,-73.15487670898438
1779786623812278300,2.8452783203125,-150.3388671875,64.52961730957031,-73.0396728515625
1779786623822374400,2.85537451171875,-150.09725952148438,64.480712890625,-73.20835876464844
1779786623832472300,2.865472412109375,-149.80091857910156,64.44223022460938,-73.06993103027344
1779786623842569500,2.875569580078125,-149.95216369628906,64.62031555175781,-73.20353698730469
1779786623852666400,2.885666259765625,-149.7943572998047,64.6021728515625,-73.12356567382812
1779786623862764300,2.895764404296875,-149.61740112304688,64.33645629882812,-73.19206237792969
1779786623872859100,2.905859130859375,-149.43115234375,64.65907287597656,-73.49099731445312
1779786623882956300,2.915956298828125,-149.48434448242188,65.042724609375,-73.01864624023438
1779786623893052400,2.926052490234375,-149.49720764160156,65.05313110351562,-73.10894775390625
1779786623903150300,2.936150390625,-149.50511169433594,65.12129211425781,-73.34686279296875
1779786623913247200,2.946247314453125,-148.78482055664062,64.92718505859375,-73.20370483398438
1779786623923344400,2.956344482421875,-148.86734008789062,64.88580322265625,-73.23899841308594
1779786623933440300,2.966440185546875,-148.9507598876953,65.25967407226562,-73.46885681152344
1779786623943537200,2.976537109375,-148.88558959960938,65.30125427246094,-73.40777587890625
1779786623953633300,2.98663330078125,-149.38079833984375,65.50323486328125,-73.90927124023438
1779786623963729200,2.996729248046875,-149.07070922851562,65.368896484375,-73.40510559082031
1779786623973826000,3.006825927734375,-148.98983764648438,65.33250427246094,-73.31620788574219
1779786623983924200,3.01692431640625,-149.57772827148438,65.37591552734375,-73.05931091308594
1779786623994021000,3.027021240234375,-149.46998596191406,65.26316833496094,-73.20832824707031
1779786624004119000,3.037119140625,-149.2556915283203,65.67768859863281,-73.49919128417969
1779786624014216200,3.04721630859375,-149.01629638671875,65.63337707519531,-73.2996826171875
1779786624024314000,3.057314208984375,-149.2216033935547,65.62385559082031,-73.6361083984375
1779786624034410200,3.06741015625,-148.43460083007812,65.52513122558594,-73.22589111328125
1779786624044507400,3.07750732421875,-149.16790771484375,65.40449523925781,-73.40003967285156
1779786624054604300,3.087604248046875,-149.4630126953125,65.25245666503906,-73.26533508300781
1779786624064700400,3.097700439453125,-149.86239624023438,65.11444091796875,-73.08567810058594
1779786624074797000,3.107797119140625,-149.45126342773438,64.91740417480469,-72.96626281738281
1779786624084894200,3.117894287109375,-149.53936767578125,65.01219177246094,-73.05430603027344
1779786624094990300,3.127990234375,-149.01437377929688,65.23927307128906,-72.996337890625
1779786624105087200,3.138087158203125,-149.3059539794922,65.19163513183594,-72.85714721679688
1779786624115182000,3.14818212890625,-149.19212341308594,65.37515258789062,-72.66865539550781
1779786624125279200,3.158279296875,-148.98341369628906,65.18093872070312,-72.85545349121094
1779786624135375400,3.168375244140625,-148.56793212890625,65.3204345703125,-72.630126953125
1779786624145471200,3.17847119140625,-148.59068298339844,65.27088928222656,-72.68351745605469
1779786624155568400,3.188568359375,-148.7527313232422,65.57354736328125,-72.80442810058594
1779786624165665000,3.1986650390625,-148.4794921875,65.84147644042969,-73.13107299804688
1779786624175761200,3.20876123046875,-148.43606567382812,65.97702026367188,-73.11766052246094
1779786624185857300,3.218857177734375,-148.16297912597656,65.93896484375,-73.15670776367188
1779786624195953400,3.228953369140625,-148.63897705078125,65.98806762695312,-73.5330810546875
1779786624206048300,3.23904833984375,-148.39846801757812,65.91403198242188,-72.79206848144531
1779786624216144400,3.249144287109375,-148.8338623046875,65.67098999023438,-72.85946655273438
1779786624226240300,3.259240234375,-148.7567596435547,66.05097961425781,-73.10304260253906
1779786624236337200,3.269337158203125,-148.85064697265625,65.71774291992188,-72.97201538085938
1779786624246433300,3.279433349609375,-149.27529907226562,66.13264465332031,-73.22224426269531
1779786624256530200,3.2895302734375,-148.81820678710938,65.989990234375,-72.9140625
1779786624266625300,3.299625244140625,-149.56100463867188,65.71865844726562,-72.91545104980469
1779786624276722200,3.30972216796875,-149.3715057373047,65.87907409667969,-73.10139465332031
1779786624286819300,3.3198193359375,-149.32492065429688,65.86395263671875,-73.09970092773438
1779786624296917200,3.329917236328125,-149.89358520507812,65.68074035644531,-73.54397583007812
1779786624307013400,3.340013427734375,-149.5431671142578,65.45864868164062,-73.47314453125
1779786624317110300,3.3501103515625,-149.57984924316406,65.44889831542969,-73.20710754394531
1779786624327207400,3.36020751953125,-149.31617736816406,65.38302612304688,-73.42575073242188
1779786624337304300,3.37030419921875,-149.4904327392578,65.55451965332031,-73.38081359863281
1779786624347401200,3.380401123046875,-149.39646911621094,65.09605407714844,-73.33465576171875
1779786624357497000,3.3904970703125,-149.52992248535156,65.16508483886719,-72.92292785644531
1779786624367594200,3.40059423828125,-149.66798400878906,65.526611328125,-72.79161071777344
1779786624377691400,3.41069140625,-149.33934020996094,65.43630981445312,-73.13163757324219
1779786624387788300,3.420788330078125,-149.48675537109375,65.26258850097656,-73.14170837402344
1779786624397885400,3.430885498046875,-149.5555419921875,65.66081237792969,-73.1256103515625
1779786624407982300,3.440982421875,-149.53871154785156,65.78738403320312,-73.34333801269531
1779786624418079500,3.45107958984375,-149.56076049804688,65.97810363769531,-73.50682067871094
1779786624428176100,3.461176025390625,-149.49342346191406,66.01335144042969,-73.23097229003906
1779786624438274000,3.471274169921875,-149.08099365234375,65.71696472167969,-73.31118774414062
1779786624448371200,3.48137109375,-149.6433868408203,65.85111999511719,-73.37547302246094
1779786624458468000,3.491468017578125,-149.49974060058594,65.86067199707031,-73.35673522949219
1779786624468565200,3.501565185546875,-149.68858337402344,65.88145446777344,-73.77879333496094
1779786624478662100,3.511662109375,-149.94000244140625,66.08000183105469,-73.75837707519531
1779786624488759300,3.52175927734375,-149.96434020996094,66.06863403320312,-73.45724487304688
1779786624498857200,3.531857177734375,-150.05458068847656,66.18731689453125,-73.43133544921875
1779786624508956200,3.5419560546875,-149.9741973876953,66.14418029785156,-73.39154052734375
1779786624519054000,3.55205419921875,-149.8468475341797,66.19123840332031,-73.42848205566406
1779786624529151200,3.562151123046875,-150.18992614746094,65.74459838867188,-73.38031005859375
1779786624539248000,3.572248046875,-150.3026580810547,65.78372192382812,-73.33476257324219
1779786624549344300,3.58234423828125,-150.3937225341797,65.29476928710938,-73.63555908203125
1779786624559441400,3.59244140625,-150.12521362304688,65.04017639160156,-73.80012512207031
1779786624569539300,3.602539306640625,-150.6190643310547,65.08509826660156,-73.57341003417969
1779786624579637200,3.61263720703125,-151.1206512451172,64.89064025878906,-73.63127136230469
1779786624589734400,3.622734375,-151.4230499267578,64.78547668457031,-73.14970397949219
1779786624599830300,3.632830322265625,-151.37149047851562,64.80508422851562,-73.4259033203125
1779786624609929200,3.64292919921875,-151.1207275390625,64.36929321289062,-73.6641845703125
1779786624620027400,3.65302734375,-150.89633178710938,64.85702514648438,-73.33770751953125
1779786624630125300,3.663125244140625,-150.41278076171875,64.67135620117188,-73.58560180664062
1779786624640223200,3.67322314453125,-150.56280517578125,64.81671142578125,-73.30851745605469
1779786624650322200,3.683322265625,-150.81344604492188,64.78993225097656,-73.38357543945312
1779786624660419300,3.69341943359375,-150.92398071289062,64.55171203613281,-73.23455810546875
1779786624670517200,3.703517333984375,-150.32711791992188,64.86955261230469,-73.32536315917969
1779786624680615200,3.713615234375,-150.50755310058594,64.74659729003906,-73.57365417480469
1779786624690713000,3.723713134765625,-150.86746215820312,65.12272644042969,-73.64082336425781
1779786624700811300,3.733811279296875,-150.4430389404297,64.96176147460938,-73.38861083984375
1779786624710909400,3.743909423828125,-150.33456420898438,65.12234497070312,-73.68281555175781
1779786624721006000,3.754006103515625,-150.25704956054688,65.0838623046875,-73.20613098144531
1779786624731102200,3.764102294921875,-150.28782653808594,65.01904296875,-73.48637390136719
1779786624741199400,3.774199462890625,-150.37225341796875,65.08622741699219,-73.44964599609375
1779786624751295200,3.784295166015625,-150.44558715820312,65.51679992675781,-73.56137084960938
1779786624761392400,3.794392333984375,-151.11123657226562,64.88232421875,-73.50672912597656
1779786624771489000,3.804489013671875,-150.67710876464844,64.82577514648438,-73.44790649414062
1779786624781586200,3.814586181640625,-151.26560974121094,64.81277465820312,-73.53988647460938
1779786624791683000,3.82468310546875,-150.70547485351562,64.72148132324219,-73.67279052734375
1779786624801780200,3.8347802734375,-151.14352416992188,64.44331359863281,-73.97097778320312
1779786624811878100,3.844878173828125,-151.56134033203125,64.38230895996094,-73.8564453125
1779786624821976000,3.85497607421875,-150.91043090820312,64.32405090332031,-73.74024963378906
1779786624832074200,3.86507421875,-150.85833740234375,64.05686950683594,-73.99940490722656
1779786624842173400,3.87517333984375,-151.35867309570312,64.26376342773438,-73.82795715332031
1779786624852270800,3.885270751953125,-151.68771362304688,64.39002990722656,-73.597900390625
1779786624862367700,3.89536767578125,-151.5323944091797,64.20750427246094,-73.66297912597656
1779786624872466000,3.9054658203125,-151.2074737548828,64.40640258789062,-73.68901062011719
1779786624882563800,3.915563720703125,-150.9727325439453,64.40127563476562,-73.83213806152344
1779786624892661800,3.925661865234375,-150.8817596435547,64.35311889648438,-73.98023986816406
1779786624902759000,3.935759033203125,-150.89263916015625,64.45968627929688,-73.96697998046875
1779786624912856800,3.94585693359375,-150.83438110351562,64.43281555175781,-73.78816223144531
1779786624922953700,3.95595361328125,-150.7921905517578,64.5675048828125,-73.77897644042969
1779786624933052000,3.966052001953125,-150.55062866210938,64.76814270019531,-73.72212219238281
1779786624943149800,3.97614990234375,-150.3142547607422,64.81478881835938,-73.94540405273438
1779786624953246700,3.986246826171875,-150.77525329589844,65.06547546386719,-73.97181701660156
1779786624963345000,3.996344970703125,-150.4003143310547,64.893798828125,-74.19851684570312
1779786624973442800,4.00644287109375,-150.476806640625,64.92510986328125,-73.61761474609375
1779786624983541800,4.016541748046875,-150.9258575439453,64.90487670898438,-74.37420654296875
1779786624993638000,4.026637939453125,-151.1063690185547,65.13241577148438,-73.81245422363281
1779786625003734800,4.03673486328125,-151.40367126464844,64.9818115234375,-74.03147888183594
1779786625013832000,4.04683203125,-151.40093994140625,65.13285827636719,-74.0015869140625
1779786625023928600,4.056928466796875,-151.6262969970703,65.06724548339844,-73.86367797851562
1779786625034025700,4.067025634765625,-151.5596160888672,65.23129272460938,-73.8416748046875
1779786625044125000,4.077125,-151.69454956054688,64.99223327636719,-73.89028930664062
1779786625054221800,4.087221923828125,-151.78053283691406,64.61572265625,-73.69241333007812
1779786625064319700,4.09731982421875,-151.39297485351562,64.66171264648438,-73.79478454589844
1779786625074418000,4.10741796875,-151.44552612304688,64.47383117675781,-74.12062072753906
1779786625084513800,4.117513671875,-151.61695861816406,64.707763671875,-73.90184020996094
1779786625094611700,4.12761181640625,-151.630859375,64.5224609375,-73.7059326171875
1779786625104708600,4.13770849609375,-151.71719360351562,64.43328857421875,-73.80596923828125
1779786625114804700,4.1478046875,-151.6510467529297,64.37391662597656,-73.59158325195312
1779786625124902000,4.15790185546875,-151.77943420410156,64.38226318359375,-73.35641479492188
1779786625134996700,4.167996826171875,-151.38880920410156,64.53948974609375,-73.37738037109375
1779786625145092600,4.178092529296875,-151.25006103515625,64.60830688476562,-73.69467163085938
1779786625155190800,4.188190673828125,-151.7659149169922,64.81022644042969,-73.50363159179688
1779786625165290000,4.1982900390625,-151.20504760742188,64.80021667480469,-73.23884582519531
1779786625175386600,4.20838671875,-151.27401733398438,64.71949768066406,-73.04273986816406
1779786625185482800,4.218482666015625,-150.94297790527344,64.94622802734375,-73.00996398925781
1779786625195579600,4.22857958984375,-150.73419189453125,64.86221313476562,-73.7347412109375
1779786625205676800,4.2386767578125,-150.59173583984375,65.20683288574219,-73.67253112792969
1779786625215773700,4.248773681640625,-150.70799255371094,65.23173522949219,-73.41218566894531
1779786625225870800,4.258870849609375,-150.98292541503906,65.06892395019531,-73.45220947265625
1779786625235968000,4.268968017578125,-151.16685485839844,65.21141052246094,-73.31170654296875
1779786625246064600,4.279064697265625,-151.37069702148438,65.36508178710938,-73.66680908203125
1779786625256161800,4.289161865234375,-151.69007873535156,65.34722900390625,-73.43301391601562
1779786625266259700,4.299259765625,-151.2547149658203,65.19148254394531,-73.34036254882812
1779786625276357600,4.309357666015625,-151.6111602783203,65.29331970214844,-73.46688842773438
1779786625286453800,4.319453857421875,-151.7691192626953,65.25883483886719,-73.489013671875
1779786625296551700,4.3295517578125,-151.3285675048828,65.25686645507812,-73.51296997070312
1779786625306649600,4.339649658203125,-151.6029815673828,65.01055908203125,-73.4410400390625
1779786625316747800,4.349747802734375,-151.31756591796875,64.65498352050781,-73.577880859375
1779786625326844700,4.3598447265625,-152.0703887939453,64.85212707519531,-73.43376159667969
1779786625336941800,4.36994189453125,-151.8824920654297,64.48075866699219,-73.58341979980469
1779786625347038700,4.380038818359375,-151.7662811279297,64.74429321289062,-73.39236450195312
1779786625357136000,4.390135986328125,-152.19410705566406,64.46914672851562,-73.03410339355469
1779786625367232800,4.400232666015625,-152.03794860839844,64.96820068359375,-72.99020385742188
1779786625377330000,4.410329833984375,-151.61764526367188,64.57429504394531,-72.55935668945312
1779786625387425500,4.420425537109375,-152.0592498779297,64.44602966308594,-72.84342956542969
1779786625397524000,4.43052392578125,-151.8740692138672,64.54641723632812,-72.91950988769531
1779786625407620600,4.44062060546875,-151.8017578125,64.82954406738281,-73.04074096679688
1779786625417717800,4.4507177734375,-151.7794189453125,64.73200988769531,-72.96083068847656
1779786625427814700,4.460814697265625,-151.4818878173828,64.48930358886719,-72.86474609375
1779786625437911800,4.470911865234375,-151.47731018066406,64.58778381347656,-72.81059265136719
1779786625448009700,4.481009765625,-151.65377807617188,64.91473388671875,-72.64512634277344
1779786625458107000,4.49110693359375,-151.4108428955078,64.99391174316406,-72.86972045898438
1779786625468202800,4.50120263671875,-151.78701782226562,64.84213256835938,-72.63966369628906
1779786625478301700,4.5113017578125,-151.75982666015625,64.97628784179688,-73.02442932128906
1779786625488398800,4.52139892578125,-151.53012084960938,65.231201171875,-72.74745178222656
1779786625498496800,4.531496826171875,-151.79690551757812,65.01438903808594,-72.81843566894531
1779786625508594000,4.541593994140625,-151.89671325683594,64.85836791992188,-72.73928833007812
1779786625518689800,4.551689697265625,-152.21041870117188,64.81324768066406,-73.20634460449219
1779786625528786700,4.56178662109375,-152.1982879638672,64.88325500488281,-72.47242736816406
1779786625538881800,4.5718818359375,-152.22598266601562,64.93719482421875,-72.82614135742188
1779786625548978700,4.581978759765625,-151.99183654785156,64.99554443359375,-72.49009704589844
1779786625559075800,4.592075927734375,-152.3369598388672,64.6865234375,-72.66789245605469
1779786625569173800,4.602173828125,-152.72909545898438,64.33834838867188,-72.56524658203125
1779786625579269600,4.61226953125,-152.7156524658203,64.25579833984375,-72.52818298339844
1779786625589367800,4.622367919921875,-152.91873168945312,64.10893249511719,-72.73768615722656
1779786625599465700,4.6324658203125,-152.56658935546875,64.25218200683594,-72.66429138183594
1779786625609564700,4.642564697265625,-152.7829132080078,64.17019653320312,-72.46054077148438
1779786625619661800,4.652661865234375,-152.54541015625,63.82783508300781,-72.22808837890625
1779786625629758700,4.6627587890625,-152.42962646484375,64.14495849609375,-72.15768432617188
1779786625639854600,4.6728544921875,-152.34056091308594,63.77073669433594,-72.19053649902344
1779786625649951700,4.68295166015625,-152.18179321289062,63.75439453125,-71.85322570800781
1779786625660048600,4.693048583984375,-151.91845703125,64.04646301269531,-72.17445373535156
1779786625670144800,4.703144775390625,-151.73394775390625,64.03436279296875,-72.15927124023438
1779786625680242000,4.713241943359375,-151.88662719726562,64.00045776367188,-71.79412841796875
1779786625690338800,4.7233388671875,-151.73814392089844,64.35615539550781,-71.94767761230469
1779786625700436000,4.73343603515625,-152.1266632080078,64.04583740234375,-71.9677734375
1779786625710534000,4.743533935546875,-152.37843322753906,64.21356201171875,-72.20622253417969
1779786625720631800,4.7536318359375,-151.99009704589844,64.29510498046875,-72.26470947265625
1779786625730729000,4.76372900390625,-152.2832489013672,64.41911315917969,-72.20904541015625
1779786625740827000,4.773826904296875,-152.3568878173828,64.28602600097656,-72.62469482421875
1779786625750922800,4.7839228515625,-152.2779083251953,64.68351745605469,-72.39120483398438
1779786625761019600,4.79401953125,-152.0810089111328,64.05110168457031,-71.88101196289062
1779786625771116800,4.80411669921875,-152.45166015625,64.31549072265625,-71.67877197265625
1779786625781213700,4.814213623046875,-152.46914672851562,64.14308166503906,-71.81314086914062
1779786625791309800,4.824309814453125,-152.41017150878906,64.35917663574219,-71.79762268066406
1779786625801405700,4.83440576171875,-153.0258026123047,64.42764282226562,-71.85394287109375
1779786625811501800,4.844501708984375,-152.85400390625,64.584228515625,-71.73995971679688
1779786625821598700,4.8545986328125,-152.80563354492188,64.42527770996094,-72.21189880371094
1779786625831694800,4.86469482421875,-152.80580139160156,63.66180419921875,-71.70317077636719
1779786625841791700,4.874791748046875,-153.26510620117188,63.50135803222656,-72.03262329101562
1779786625851889000,4.884888916015625,-153.2284393310547,63.8104248046875,-71.45846557617188
1779786625861986000,4.894986083984375,-153.74069213867188,63.60063171386719,-71.58616638183594
1779786625872082000,4.90508203125,-153.67611694335938,63.880523681640625,-71.69612121582031
1779786625882179000,4.915178955078125,-153.09371948242188,63.56346130371094,-71.5965576171875
1779786625892274000,4.92527392578125,-152.58470153808594,63.58160400390625,-71.72830200195312
1779786625902370000,4.9353701171875,-152.8400421142578,63.76690673828125,-71.54972839355469
1779786625912466200,4.945466064453125,-152.66180419921875,63.891357421875,-71.30360412597656
1779786625922561000,4.95556103515625,-152.3279266357422,64.00859069824219,-71.49539184570312
1779786625932657000,4.965656982421875,-152.24903869628906,63.94773864746094,-71.28945922851562
1779786625942752000,4.975751953125,-152.79144287109375,63.769256591796875,-71.7628173828125
1779786625952848000,4.985847900390625,-152.80751037597656,64.11802673339844,-71.6885986328125
1779786625962941000,4.99594091796875,-152.69139099121094,64.17037963867188,-72.00971984863281
1779786625973036000,5.0060361328125,-151.86981201171875,64.37313842773438,-72.02690124511719
1779786625983132200,5.016132080078125,-152.45603942871094,64.24371337890625,-71.80352783203125
1779786625993227000,5.02622705078125,-152.3655242919922,64.3720703125,-71.94380187988281
1779786626003323100,5.0363232421875,-152.76893615722656,64.28443908691406,-72.40802001953125
1779786626013418000,5.04641796875,-152.84165954589844,64.33644104003906,-72.33131408691406
1779786626023513000,5.05651318359375,-152.83502197265625,64.34320068359375,-72.49972534179688
1779786626033609000,5.06660888671875,-152.88499450683594,64.59518432617188,-72.07156372070312
1779786626043705000,5.076705078125,-152.81532287597656,64.31001281738281,-72.495849609375
1779786626053801000,5.086801025390625,-153.5987548828125,64.27792358398438,-72.23561096191406
1779786626063896000,5.09689599609375,-153.15298461914062,64.16407775878906,-72.08650207519531
1779786626073993000,5.106992919921875,-153.25697326660156,64.34429931640625,-72.15472412109375
1779786626084090000,5.117090087890625,-153.43077087402344,64.5301513671875,-72.13102722167969
1779786626094186000,5.12718603515625,-153.21986389160156,64.32316589355469,-72.44258117675781
1779786626104281900,5.13728173828125,-153.57688903808594,64.47755432128906,-72.42057800292969
1779786626114379000,5.14737890625,-153.71133422851562,64.16743469238281,-72.46803283691406
1779786626124475000,5.157474853515625,-153.3614959716797,64.00190734863281,-72.19329833984375
1779786626134572000,5.167572021484375,-153.57614135742188,63.798309326171875,-72.25799560546875
1779786626144668200,5.177668212890625,-153.57322692871094,63.83213806152344,-72.37457275390625
1779786626154764000,5.187763916015625,-153.3852081298828,63.63429260253906,-72.11466979980469
1779786626164859100,5.197859130859375,-153.7662353515625,64.06983947753906,-72.23489379882812
1779786626174955000,5.207955078125,-152.748291015625,63.80767822265625,-72.07261657714844
1779786626185052000,5.218052001953125,-152.72816467285156,64.05422973632812,-72.18971252441406
1779786626195148000,5.22814794921875,-152.83981323242188,64.15679931640625,-71.91642761230469
1779786626205245000,5.238244873046875,-152.45155334472656,64.54261779785156,-72.18818664550781
1779786626215341000,5.248341064453125,-152.71266174316406,64.19343566894531,-72.07524108886719
1779786626225437000,5.25843701171875,-152.74212646484375,64.12956237792969,-72.3668212890625
1779786626235534000,5.2685341796875,-152.7963409423828,64.45233154296875,-72.66305541992188
1779786626245631000,5.278630859375,-152.58291625976562,64.48027038574219,-72.42588806152344
1779786626255727000,5.28872705078125,-152.9150390625,64.57586669921875,-72.37637329101562
1779786626265824000,5.298823974609375,-152.69735717773438,64.56217956542969,-72.36643981933594
1779786626275921200,5.308921142578125,-152.2831268310547,64.62232971191406,-72.86772155761719
1779786626286016000,5.31901611328125,-152.9054412841797,64.61724853515625,-72.84544372558594
1779786626296112000,5.329112060546875,-152.47732543945312,64.79597473144531,-73.05638122558594
1779786626306210000,5.3392099609375,-152.84036254882812,64.74224853515625,-73.02424621582031
1779786626316309000,5.34930908203125,-153.18634033203125,64.55192565917969,-73.04707336425781
1779786626326407000,5.359406982421875,-152.89700317382812,64.44830322265625,-73.21539306640625
1779786626336502000,5.369501953125,-153.24900817871094,64.45330810546875,-72.80029296875
1779786626346599200,5.37959912109375,-153.5639190673828,64.73435974121094,-72.76809692382812
1779786626356696000,5.389696044921875,-153.19960021972656,64.73387145996094,-72.64498901367188
1779786626366793000,5.39979296875,-153.24380493164062,64.82675170898438,-73.09323120117188
1779786626376889900,5.409889892578125,-152.935791015625,64.57510375976562,-73.00648498535156
1779786626386988000,5.419988037109375,-153.32203674316406,64.4056396484375,-73.36111450195312
1779786626397085000,5.4300849609375,-153.65142822265625,64.18093872070312,-72.87713623046875
1779786626407182800,5.440182861328125,-153.4980926513672,64.27537536621094,-73.06028747558594
1779786626417282000,5.450281982421875,-153.21588134765625,64.08665466308594,-73.31068420410156
1779786626427383000,5.460383056640625,-153.5562286376953,64.06338500976562,-73.01171875
1779786626437481000,5.47048095703125,-153.57054138183594,64.07354736328125,-73.04402160644531
1779786626447577900,5.480577880859375,-153.28598022460938,64.0938720703125,-72.80766296386719
1779786626457675000,5.490675048828125,-153.23428344726562,64.25822448730469,-72.97158813476562
1779786626467773000,5.50077294921875,-153.78379821777344,64.18858337402344,-72.65545654296875
1779786626477870800,5.510870849609375,-153.09237670898438,64.35096740722656,-72.71464538574219
1779786626487968000,5.520968017578125,-153.09185791015625,64.5689697265625,-72.68344116210938
1779786626498066000,5.53106591796875,-153.2279510498047,64.38229370117188,-73.138671875
1779786626508163800,5.541163818359375,-152.8043975830078,64.80390930175781,-72.97816467285156
1779786626518262000,5.551261962890625,-152.82186889648438,64.27467346191406,-73.196533203125
1779786626528361000,5.56136083984375,-153.08181762695312,64.66781616210938,-72.87101745605469
1779786626538459100,5.571459228515625,-153.0085906982422,64.77565002441406,-73.03030395507812
1779786626548556000,5.58155615234375,-152.98817443847656,65.00047302246094,-73.0966796875
1779786626558652000,5.59165185546875,-153.16650390625,64.86134338378906,-73.61105346679688
1779786626568749800,5.601749755859375,-152.6999969482422,65.0260009765625,-73.60092163085938
1779786626578848000,5.611847900390625,-152.7981414794922,65.00300598144531,-73.48846435546875
1779786626588945000,5.62194482421875,-152.63282775878906,65.05729675292969,-73.62295532226562
1779786626599042800,5.632042724609375,-152.6200714111328,64.91641235351562,-73.38032531738281
1779786626609141000,5.64214111328125,-152.8636474609375,64.81517028808594,-73.14558410644531
1779786626619236900,5.65223681640625,-152.8022918701172,65.13764953613281,-73.56570434570312
1779786626629334000,5.662333984375,-152.8466033935547,65.06301879882812,-73.12863159179688
1779786626639433000,5.672432861328125,-153.21498107910156,65.0758056640625,-73.08381652832031
1779786626649529900,5.68252978515625,-153.29368591308594,65.22886657714844,-73.37388610839844
1779786626659628000,5.6926279296875,-153.4049530029297,65.24134826660156,-73.12675476074219
1779786626669725000,5.702724853515625,-153.27565002441406,64.91018676757812,-73.17929077148438
1779786626679822800,5.71282275390625,-153.17164611816406,65.05473327636719,-73.38888549804688
1779786626689921000,5.722921142578125,-153.07359313964844,64.96304321289062,-73.16081237792969
1779786626700018000,5.733017822265625,-153.6940460205078,64.45883178710938,-73.10122680664062
1779786626710115000,5.743114990234375,-153.59217834472656,64.43714904785156,-73.39610290527344
1779786626720211000,5.7532109375,-153.22708129882812,64.82093811035156,-73.11688232421875
1779786626730308000,5.76330810546875,-153.36375427246094,64.58901977539062,-73.06724548339844
1779786626740404200,5.773404296875,-153.11453247070312,64.96453857421875,-73.33773803710938
1779786626750502100,5.783502197265625,-153.27455139160156,64.45701599121094,-73.29641723632812
1779786626760600000,5.79360009765625,-153.48611450195312,64.80586242675781,-73.33016967773438
1779786626770698000,5.803697998046875,-153.8000946044922,64.78584289550781,-73.08500671386719
1779786626780795100,5.813795166015625,-152.8613739013672,64.81791687011719,-73.30558776855469
1779786626790893000,5.82389306640625,-152.9635772705078,64.80726623535156,-72.55683898925781
1779786626800990200,5.833990234375,-152.7543487548828,65.24267578125,-73.09698486328125
1779786626811086800,5.8440869140625,-152.84719848632812,65.38392639160156,-72.998779296875
1779786626821185000,5.85418505859375,-152.71212768554688,65.13995361328125,-72.87837219238281
1779786626831282000,5.864281982421875,-152.18356323242188,65.25335693359375,-72.83009338378906
1779786626841378000,5.8743779296875,-152.29605102539062,65.48226928710938,-72.82843017578125
1779786626851477000,5.88447705078125,-152.4009246826172,65.3623046875,-72.9862060546875
1779786626861574000,5.894573974609375,-152.80398559570312,65.1533203125,-73.54740905761719
1779786626871673000,5.904673095703125,-152.20639038085938,65.24618530273438,-73.32473754882812
1779786626881770000,5.91477001953125,-152.50381469726562,65.17745971679688,-73.27568054199219
1779786626891870000,5.924869873046875,-152.69081115722656,65.264404296875,-73.60208129882812
1779786626901967000,5.934967041015625,-152.666748046875,65.33770751953125,-73.44631958007812
1779786626912065000,5.94506494140625,-152.58534240722656,65.45793151855469,-73.49217224121094
1779786626922163000,5.955162841796875,-152.52728271484375,65.34591674804688,-73.51374816894531
1779786626932260000,5.965260009765625,-152.36769104003906,65.507080078125,-73.39434814453125
1779786626942359000,5.975359130859375,-152.79774475097656,65.27384948730469,-73.61187744140625
1779786626952456000,5.9854560546875,-152.6926727294922,65.6514892578125,-73.18617248535156
1779786626962553900,5.995553955078125,-153.11160278320312,65.26715087890625,-73.63534545898438
1779786626972651000,6.005651123046875,-152.59222412109375,65.67095947265625,-73.33476257324219
1779786626982747100,6.0157470703125,-152.36492919921875,65.29020690917969,-73.53372192382812
1779786626992843000,6.025843017578125,-152.12362670898438,65.16439819335938,-73.49623107910156
1779786627002940000,6.03593994140625,-152.54360961914062,65.30291748046875,-73.65536499023438
1779786627013036000,6.0460361328125,-153.05361938476562,65.30596923828125,-73.65574645996094
1779786627023135000,6.056135009765625,-152.8010711669922,65.3111572265625,-73.59437561035156
1779786627033232000,6.06623193359375,-152.5928192138672,64.720947265625,-73.38330078125
1779786627043329000,6.0763291015625,-152.86004638671875,65.21408081054688,-73.47433471679688
1779786627053425200,6.086425048828125,-152.85183715820312,65.12451171875,-73.12612915039062
1779786627063522000,6.09652197265625,-152.86436462402344,65.3624267578125,-72.96286010742188
1779786627073620000,6.106619873046875,-152.86724853515625,65.30122375488281,-73.35525512695312
1779786627083717000,6.116717041015625,-152.5918426513672,65.27934265136719,-73.49150085449219
1779786627093815000,6.12681494140625,-152.94387817382812,65.43473815917969,-73.27227783203125
1779786627103913000,6.136912841796875,-152.5975341796875,65.4515380859375,-73.36106872558594
1779786627114010000,6.147010009765625,-152.42605590820312,65.01947021484375,-73.36759948730469
1779786627124108000,6.15710791015625,-152.17486572265625,65.29588317871094,-73.6373291015625
1779786627134205200,6.167205078125,-152.15316772460938,64.91545104980469,-73.76808166503906
1779786627144304000,6.17730419921875,-152.35572814941406,65.30238342285156,-73.71420288085938
1779786627154401000,6.187401123046875,-152.154052734375,65.28913879394531,-73.6326904296875
1779786627164497000,6.197496826171875,-151.84530639648438,65.39950561523438,-73.720458984375
1779786627174593000,6.207593017578125,-152.36233520507812,65.34347534179688,-73.78739929199219
1779786627184691000,6.21769091796875,-152.42462158203125,65.39633178710938,-73.85191345214844
1779786627194788000,6.2277880859375,-152.7215118408203,65.49143981933594,-73.57205200195312
1779786627204885000,6.237885009765625,-152.20733642578125,65.54031372070312,-73.54507446289062
1779786627214982100,6.247982177734375,-152.0169677734375,65.56034851074219,-73.68955993652344
1779786627225081000,6.2580810546875,-152.47622680664062,65.64164733886719,-73.48228454589844
1779786627235177000,6.268177001953125,-152.87814331054688,65.47514343261719,-73.27041625976562
1779786627245271800,6.278271728515625,-152.2921905517578,65.59410095214844,-73.19664001464844
1779786627255369000,6.288368896484375,-153.18038940429688,65.13890075683594,-73.250732421875
1779786627265464000,6.298464111328125,-152.73162841796875,65.41680908203125,-73.40261840820312
1779786627275561200,6.308561279296875,-152.70384216308594,65.60662841796875,-73.23164367675781
1779786627285658000,6.318658203125,-152.70655822753906,65.717041015625,-73.4688720703125
1779786627295755000,6.328755126953125,-153.4452362060547,65.30796813964844,-73.75508117675781
1779786627305851000,6.338850830078125,-153.65647888183594,65.65751647949219,-73.58750915527344
1779786627315948000,6.348947998046875,-153.11659240722656,65.39860534667969,-73.84658813476562
1779786627326045000,6.359044921875,-152.78372192382812,65.27432250976562,-73.71180725097656
1779786627336144000,6.369143798828125,-153.26727294921875,65.54434204101562,-73.6448974609375
1779786627346241000,6.379240966796875,-153.48731994628906,65.40837097167969,-73.46778869628906
1779786627356339000,6.3893388671875,-153.49322509765625,65.16561889648438,-73.65545654296875
1779786627366435000,6.39943505859375,-152.7742919921875,65.04539489746094,-73.63272094726562
1779786627376531200,6.40953125,-152.41407775878906,65.24517822265625,-73.98963928222656
1779786627386627800,6.4196279296875,-152.2346954345703,65.46803283691406,-73.81510925292969
1779786627396725000,6.42972509765625,-152.51344299316406,65.5689697265625,-73.8992919921875
1779786627406823000,6.439822998046875,-152.10870361328125,65.57688903808594,-73.86793518066406
1779786627416920000,6.449920166015625,-152.27566528320312,65.33367919921875,-73.58863830566406
1779786627427018000,6.46001806640625,-152.29563903808594,65.72023010253906,-73.5284423828125
1779786627437116000,6.470115966796875,-151.96446228027344,65.42845153808594,-73.65415954589844
1779786627447213000,6.480213134765625,-151.96493530273438,66.16950988769531,-73.62744140625
1779786627457310000,6.49031005859375,-152.2113494873047,65.66865539550781,-73.59956359863281
1779786627467407000,6.500406982421875,-152.27264404296875,65.81558227539062,-74.01408386230469
1779786627477504000,6.51050390625,-152.20889282226562,65.78938293457031,-74.11825561523438
1779786627487602000,6.520601806640625,-151.90936279296875,65.6881103515625,-74.3958740234375
1779786627497698000,6.530697998046875,-152.16111755371094,65.56016540527344,-74.61737060546875
1779786627507794000,6.5407939453125,-152.37860107421875,65.40292358398438,-74.43310546875
1779786627517890000,6.55089013671875,-152.29742431640625,65.74661254882812,-74.47285461425781
1779786627527989000,6.560989013671875,-152.9016876220703,65.71600341796875,-74.35905456542969
1779786627538086000,6.5710859375,-152.3280029296875,65.80191040039062,-74.03044128417969
1779786627548183800,6.581183837890625,-152.222900390625,65.85000610351562,-74.55386352539062
1779786627558281000,6.591281005859375,-152.639892578125,65.62567138671875,-73.91276550292969
1779786627568380200,6.601380126953125,-152.13365173339844,65.65623474121094,-74.05213928222656
1779786627578478000,6.61147802734375,-152.32809448242188,66.01324462890625,-73.87237548828125
1779786627588574000,6.621573974609375,-152.58607482910156,65.99513244628906,-74.12326049804688
1779786627598670800,6.6316708984375,-152.33067321777344,66.01116943359375,-74.29466247558594
1779786627608768000,6.64176806640625,-152.08114624023438,66.10331726074219,-73.92076110839844
1779786627618865000,6.651864990234375,-152.20111083984375,66.19705200195312,-73.97077941894531
1779786627628962000,6.661962158203125,-152.4537353515625,66.01811218261719,-73.87796020507812
1779786627639061000,6.67206103515625,-152.54534912109375,66.11578369140625,-73.98040771484375
1779786627649159000,6.682158935546875,-152.12733459472656,66.10153198242188,-73.49613952636719
1779786627659256000,6.692256103515625,-152.53057861328125,65.99949645996094,-73.77340698242188
1779786627669354000,6.70235400390625,-152.1556854248047,65.94438171386719,-73.75497436523438
1779786627679452000,6.712451904296875,-151.9000244140625,66.12767028808594,-73.67245483398438
1779786627689549000,6.722549072265625,-151.6625518798828,66.43536376953125,-73.82054138183594
1779786627699647000,6.73264697265625,-151.8147735595703,66.34609985351562,-73.99897766113281
1779786627709743900,6.742743896484375,-151.859375,66.21209716796875,-73.57968139648438
1779786627719841000,6.752841064453125,-151.65753173828125,66.14053344726562,-73.70281982421875
1779786627729938000,6.76293798828125,-150.922119140625,66.10560607910156,-73.49641418457031
1779786627740035000,6.77303515625,-151.3312530517578,66.12248229980469,-73.33476257324219
1779786627750132000,6.783132080078125,-151.35194396972656,66.29121398925781,-73.32958984375
1779786627760227800,6.793227783203125,-151.24493408203125,66.46237182617188,-73.51046752929688
1779786627770323000,6.803322998046875,-151.42208862304688,66.4197998046875,-73.69985961914062
1779786627780420000,6.813420166015625,-151.07254028320312,66.40422058105469,-73.47990417480469
1779786627790516000,6.823515869140625,-151.33676147460938,66.20735168457031,-74.09724426269531
1779786627800614100,6.8336142578125,-151.3116912841797,66.21009826660156,-73.80755615234375
1779786627810710800,6.843710693359375,-151.38278198242188,66.43815612792969,-73.85928344726562
1779786627820808000,6.853807861328125,-150.7626495361328,66.32313537597656,-74.15280151367188
1779786627830905000,6.863905029296875,-150.87744140625,66.34608459472656,-74.47137451171875
1779786627841003000,6.8740029296875,-150.9790802001953,66.25611877441406,-74.04315185546875
1779786627851099600,6.884099609375,-151.0528564453125,66.34140014648438,-74.05931091308594
1779786627861195500,6.894195556640625,-151.66336059570312,66.46885681152344,-73.62982177734375
1779786627871292700,6.904292724609375,-151.88023376464844,66.39080810546875,-74.06559753417969
1779786627881389600,6.9143896484375,-151.81752014160156,66.14024353027344,-73.82951354980469
1779786627891485700,6.924485595703125,-152.09695434570312,66.445556640625,-74.13815307617188
1779786627901582600,6.93458251953125,-151.4624786376953,66.14024353027344,-73.93505859375
1779786627911679700,6.9446796875,-152.04852294921875,66.03924560546875,-73.89021301269531
1779786627921775600,6.954775634765625,-151.33006286621094,65.97184753417969,-73.6639404296875
1779786627931871700,6.964871826171875,-152.31082153320312,65.97575378417969,-73.7447509765625
1779786627941969700,6.9749697265625,-151.82708740234375,66.048095703125,-73.96165466308594
1779786627952067600,6.985067626953125,-152.01165771484375,66.08247375488281,-73.871826171875
1779786627962165500,6.99516552734375,-151.68336486816406,66.05722045898438,-74.10995483398438
1779786627972263700,7.005263671875,-151.84780883789062,66.04644775390625,-73.89588928222656
1779786627982360600,7.015360595703125,-152.10397338867188,65.88009643554688,-73.95225524902344
1779786627992458500,7.02545849609375,-152.35928344726562,65.81356811523438,-74.26139831542969
1779786628002556700,7.035556640625,-151.49984741210938,66.08029174804688,-74.01852416992188
1779786628012653600,7.045653564453125,-151.90792846679688,65.85621643066406,-74.015625
1779786628022751500,7.05575146484375,-151.8907928466797,65.86859130859375,-73.744873046875
1779786628032850700,7.0658505859375,-151.9127655029297,65.94120788574219,-74.02391052246094
1779786628042948600,7.075948486328125,-151.41204833984375,66.27003479003906,-73.78390502929688
1779786628053045800,7.086045654296875,-151.1313018798828,66.18502807617188,-73.91433715820312
1779786628063142700,7.096142578125,-151.49374389648438,66.20361328125,-74.12327575683594
1779786628073239600,7.106239501953125,-151.85848999023438,66.4219970703125,-74.03097534179688
1779786628083337500,7.11633740234375,-151.5214080810547,66.54295349121094,-74.01495361328125
1779786628093435600,7.126435546875,-150.97886657714844,66.37904357910156,-73.99069213867188
1779786628103532500,7.136532470703125,-150.8730926513672,66.73196411132812,-73.92691040039062
1779786628113629700,7.146629638671875,-151.2767333984375,66.37393188476562,-74.06234741210938
1779786628123726600,7.1567265625,-151.26983642578125,66.514404296875,-73.61982727050781
1779786628133824500,7.166824462890625,-151.28114318847656,66.13223266601562,-74.42744445800781
1779786628143920600,7.176920654296875,-151.18638610839844,66.51766967773438,-74.20869445800781
1779786628154018600,7.1870185546875,-151.42347717285156,66.58683776855469,-74.28437805175781
1779786628164115700,7.19711572265625,-150.9754638671875,66.44987487792969,-74.056396484375
1779786628174213600,7.207213623046875,-150.98548889160156,66.47735595703125,-74.35450744628906
1779786628184310800,7.217310791015625,-150.9661407470703,66.66896057128906,-73.72264099121094
1779786628194406700,7.22740673828125,-151.1742706298828,66.59359741210938,-73.88108825683594
1779786628204504800,7.2375048828125,-151.32276916503906,66.65451049804688,-74.0406494140625
1779786628214600400,7.247600341796875,-151.07205200195312,66.66873168945312,-73.63719177246094
1779786628224697600,7.257697509765625,-151.44386291503906,66.64697265625,-73.61848449707031
1779786628234794500,7.26779443359375,-151.94906616210938,66.73199462890625,-73.63084411621094
1779786628244890600,7.277890625,-151.63583374023438,66.9351806640625,-73.59791564941406
1779786628254988500,7.287988525390625,-151.3813934326172,67.10281372070312,-73.45175170898438
1779786628265084700,7.298084716796875,-151.2896270751953,66.75279235839844,-73.59646606445312
1779786628275182800,7.308182861328125,-151.54336547851562,67.07389831542969,-73.56564331054688
1779786628285278500,7.318278564453125,-151.662353515625,66.75337219238281,-73.458251953125
1779786628295375600,7.328375732421875,-151.1462860107422,66.74319458007812,-73.72018432617188
1779786628305472500,7.338472412109375,-151.54054260253906,66.88259887695312,-73.41741943359375
1779786628315568600,7.348568603515625,-151.60546875,66.76593017578125,-73.5858154296875
1779786628325664500,7.35866455078125,-151.37509155273438,66.93289184570312,-72.89668273925781
1779786628335761700,7.36876171875,-151.87001037597656,66.63551330566406,-73.71852111816406
1779786628345858600,7.378858642578125,-151.77020263671875,66.98725891113281,-73.26387023925781
1779786628355954700,7.38895458984375,-151.44915771484375,66.96882629394531,-73.34629821777344
1779786628366050800,7.39905078125,-151.44097900390625,66.81520080566406,-72.88163757324219
1779786628376146400,7.409146484375,-151.4587860107422,66.76118469238281,-73.14828491210938
1779786628386241800,7.41924169921875,-151.73036193847656,66.75180053710938,-73.49114990234375
1779786628396338700,7.429338623046875,-151.3250732421875,66.68106079101562,-73.28059387207031
1779786628406434600,7.4394345703125,-150.96363830566406,66.76351928710938,-73.28994750976562
1779786628416530700,7.44953076171875,-151.26718139648438,66.999755859375,-73.29042053222656
1779786628426627600,7.459627685546875,-151.05836486816406,66.99339294433594,-73.02047729492188
1779786628436725500,7.4697255859375,-151.2313690185547,66.86419677734375,-73.19831848144531
1779786628446822700,7.47982275390625,-150.922607421875,66.75752258300781,-73.17414855957031
1779786628456918800,7.489918701171875,-151.30239868164062,66.52275085449219,-73.0576171875
1779786628467015700,7.500015625,-151.26242065429688,66.37828063964844,-73.4482421875
1779786628477112600,7.510112548828125,-151.1923370361328,66.61529541015625,-73.22261047363281
1779786628487208700,7.520208740234375,-151.24647521972656,66.62809753417969,-73.54216003417969
1779786628497305600,7.5303056640625,-151.25123596191406,66.71624755859375,-73.63330078125
1779786628507400700,7.540400634765625,-151.33441162109375,66.93275451660156,-73.78288269042969
1779786628517497600,7.55049755859375,-150.8809051513672,66.42156982421875,-73.48011779785156
1779786628527595500,7.560595458984375,-150.98577880859375,66.51106262207031,-73.28201293945312
1779786628537692700,7.570692626953125,-151.73316955566406,66.51210021972656,-73.5528564453125
1779786628547790600,7.58079052734375,-151.89645385742188,66.51095581054688,-73.38900756835938
1779786628557887500,7.590887451171875,-151.88363647460938,66.89036560058594,-73.62303161621094
1779786628567985400,7.6009853515625,-152.13876342773438,66.54374694824219,-73.41487121582031
1779786628578082600,7.61108251953125,-151.70101928710938,66.51214599609375,-73.23655700683594
1779786628588180500,7.621180419921875,-151.8310089111328,66.82511901855469,-73.20429992675781
1779786628598276600,7.631276611328125,-152.47386169433594,66.88465881347656,-73.57585144042969
1779786628608374500,7.64137451171875,-152.43374633789062,66.79704284667969,-73.58717346191406
1779786628618471700,7.6514716796875,-152.1340789794922,66.89128112792969,-73.32861328125
1779786628628568600,7.661568603515625,-152.38172912597656,66.86824035644531,-73.34591674804688
1779786628638666800,7.671666748046875,-152.26332092285156,66.67655944824219,-73.504638671875
1779786628648763600,7.681763671875,-151.5720977783203,66.74462890625,-73.04991149902344
1779786628658861600,7.691861572265625,-152.25906372070312,66.79132080078125,-73.14375305175781
1779786628668958700,7.701958740234375,-152.3105926513672,66.73184204101562,-73.06459045410156
1779786628679055600,7.7120556640625,-152.8798370361328,66.79896545410156,-73.33238220214844
1779786628689151500,7.7221513671875,-151.9925079345703,66.63365173339844,-73.24018859863281
1779786628699249700,7.732249755859375,-152.1815185546875,66.72471618652344,-73.36277770996094
1779786628709345500,7.742345458984375,-152.22085571289062,66.71368408203125,-73.44166564941406
1779786628719443500,7.752443359375,-152.65884399414062,66.8577880859375,-73.24758911132812
1779786628729541600,7.762541748046875,-152.708251953125,66.31050109863281,-73.14857482910156
1779786628739639600,7.7726396484375,-151.94761657714844,66.51548767089844,-73.53440856933594
1779786628749737700,7.78273779296875,-151.90908813476562,66.48222351074219,-73.42327880859375
1779786628759834600,7.792834716796875,-151.99827575683594,66.37638854980469,-73.48123168945312
1779786628769930500,7.802930419921875,-151.94444274902344,66.21124267578125,-73.17573547363281
1779786628780028700,7.813028564453125,-152.009033203125,66.28724670410156,-73.45121765136719
1779786628790126600,7.823126708984375,-152.26271057128906,66.4400634765625,-73.60543823242188
1779786628800223500,7.833223388671875,-152.26132202148438,66.39846801757812,-73.15342712402344
1779786628810319600,7.843319580078125,-152.35157775878906,66.39802551269531,-73.50299072265625
1779786628820415700,7.853415771484375,-152.18338012695312,66.2908935546875,-73.55490112304688
1779786628830513700,7.863513671875,-152.32017517089844,65.7237548828125,-73.42344665527344
1779786628840610800,7.87361083984375,-152.3336181640625,66.00495910644531,-73.67964172363281
1779786628850707500,7.88370751953125,-152.6839141845703,66.14926147460938,-73.54080200195312
1779786628860805600,7.8938056640625,-152.405029296875,66.08358764648438,-73.50653076171875
1779786628870902500,7.903902587890625,-152.2271728515625,66.07461547851562,-73.68215942382812
1779786628881001500,7.91400146484375,-152.32882690429688,65.89736938476562,-73.59046936035156
1779786628891100400,7.924100341796875,-152.67189025878906,65.93220520019531,-73.65177917480469
1779786628901198300,7.9341982421875,-152.34239196777344,65.99690246582031,-73.81924438476562
1779786628911295500,7.94429541015625,-152.00242614746094,66.07656860351562,-73.30569458007812
1779786628921393400,7.954393310546875,-152.2744140625,66.06231689453125,-73.23149108886719
1779786628931490300,7.964490234375,-152.62388610839844,65.98677062988281,-73.05918884277344
1779786628941587500,7.97458740234375,-152.7969970703125,66.34495544433594,-73.3023681640625
1779786628951683600,7.98468359375,-152.47030639648438,66.00848388671875,-73.22021484375
1779786628961780200,7.9947802734375,-152.4596710205078,65.99125671386719,-73.09344482421875
1779786628971876400,8.00487646484375,-152.3118133544922,66.07586669921875,-73.18379211425781
1779786628981973500,8.014973388671875,-152.3163299560547,65.70869445800781,-72.89598083496094
1779786628992070400,8.0250703125,-152.676025390625,65.79283142089844,-73.09019470214844
1779786629002167600,8.03516748046875,-152.71791076660156,65.60237121582031,-73.43745422363281
1779786629012265500,8.045265380859375,-152.67889404296875,65.57540893554688,-73.30323791503906
1779786629022362400,8.0553623046875,-152.88511657714844,66.06146240234375,-73.1412353515625
1779786629032458500,8.06545849609375,-152.87232971191406,66.11146545410156,-73.26429748535156
1779786629042555400,8.075555419921875,-152.44346618652344,65.72433471679688,-73.22566223144531
1779786629052652300,8.08565234375,-152.56466674804688,65.772216796875,-73.22608947753906
1779786629062748400,8.09574853515625,-152.51968383789062,65.74615478515625,-73.02651977539062
1779786629072844500,8.105844482421874,-153.10504150390625,65.94747924804688,-73.10743713378906
1779786629082941400,8.11594140625,-152.3406524658203,65.73368835449219,-73.12117004394531
1779786629093039600,8.12603955078125,-152.51513671875,65.67938232421875,-72.875
1779786629103136500,8.136136474609375,-152.4900665283203,65.74061584472656,-72.88629150390625
1779786629113234400,8.146234375,-152.74697875976562,65.75076293945312,-73.23381042480469
1779786629123331600,8.15633154296875,-152.6532440185547,65.94090270996094,-73.01348876953125
1779786629133428200,8.16642822265625,-152.27992248535156,65.75810241699219,-72.83416748046875
1779786629143524400,8.1765244140625,-152.8062744140625,65.78984069824219,-73.35435485839844
1779786629153621500,8.18662158203125,-152.7553253173828,65.67185974121094,-73.20278930664062
1779786629163719400,8.196719482421875,-152.5412139892578,65.93659973144531,-72.99513244628906
1779786629173817300,8.2068173828125,-152.5529327392578,65.66325378417969,-73.520751953125
1779786629183916300,8.216916259765625,-152.5435791015625,65.5506591796875,-73.20098876953125
1779786629194015500,8.227015380859376,-152.336181640625,65.56832885742188,-73.50997924804688
1779786629204114400,8.237114501953124,-152.53575134277344,65.68357849121094,-73.12602233886719
1779786629214212400,8.24721240234375,-152.3265838623047,65.63725280761719,-73.21043395996094
1779786629224310300,8.257310302734375,-152.45965576171875,65.60908508300781,-73.28810119628906
1779786629234408400,8.267408447265625,-152.82716369628906,65.59529113769531,-73.20903015136719
1779786629244507400,8.27750732421875,-152.49282836914062,65.57649230957031,-73.5936279296875
1779786629254604300,8.287604248046875,-152.89834594726562,65.5748291015625,-73.61686706542969
1779786629264703500,8.297703369140624,-152.70884704589844,65.72395324707031,-73.47177124023438
1779786629274801400,8.307801513671874,-152.8332977294922,66.08615112304688,-73.58462524414062
1779786629284900400,8.317900390625,-152.82643127441406,66.02201843261719,-73.63383483886719
1779786629294998500,8.32799853515625,-152.62599182128906,66.00389099121094,-73.41496276855469
1779786629305097200,8.33809716796875,-152.5081329345703,65.82351684570312,-73.61225891113281
1779786629315195400,8.3481953125,-152.75146484375,65.77043151855469,-73.568603515625
1779786629325293600,8.35829345703125,-153.02830505371094,65.68849182128906,-73.28536987304688
1779786629335389400,8.368389404296876,-152.90065002441406,65.46559143066406,-73.42225646972656
1779786629345488400,8.37848828125,-153.0208740234375,65.73393249511719,-73.54811096191406
1779786629355587600,8.388587646484375,-153.26747131347656,65.42771911621094,-73.55018615722656
1779786629365685500,8.398685546875,-152.97048950195312,65.2987060546875,-73.1773681640625
1779786629375782400,8.408782470703125,-152.58876037597656,65.80197143554688,-73.11470031738281
1779786629385879600,8.418879638671875,-152.85113525390625,65.5711669921875,-73.15634155273438
1779786629395976400,8.4289765625,-152.32528686523438,65.64974975585938,-73.19065856933594
1779786629406074600,8.43907470703125,-152.6240997314453,65.749755859375,-73.37535095214844
1779786629416171300,8.449171142578125,-152.90243530273438,65.51315307617188,-73.41801452636719
1779786629426268400,8.459268310546875,-152.91363525390625,65.60000610351562,-73.12118530273438
1779786629436366300,8.469366455078125,-152.7833709716797,65.4532470703125,-73.26339721679688
1779786629446464500,8.479464599609376,-152.8091278076172,65.26397705078125,-73.4232177734375
1779786629456563500,8.4895634765625,-153.14454650878906,65.71868896484375,-73.46084594726562
1779786629466662400,8.499662353515625,-152.93856811523438,65.36967468261719,-73.34588623046875
1779786629476761300,8.50976123046875,-152.6355438232422,65.51872253417969,-73.20135498046875
1779786629486860500,8.519860595703125,-152.79513549804688,65.47769165039062,-73.54301452636719
1779786629496959500,8.52995947265625,-153.01495361328125,65.62644958496094,-74.03584289550781
1779786629507059500,8.5400595703125,-152.6770477294922,65.9342041015625,-73.55168151855469
1779786629517159400,8.550159423828125,-152.18698120117188,65.58055114746094,-73.41851806640625
1779786629527257300,8.56025732421875,-152.8206787109375,65.63972473144531,-73.76960754394531
1779786629537357300,8.570357421875,-153.1834716796875,65.5906982421875,-73.65087890625
1779786629547455200,8.580455322265625,-152.7720947265625,65.99504089355469,-73.80369567871094
1779786629557554400,8.590554443359375,-152.62454223632812,65.5760498046875,-73.677001953125
1779786629567652400,8.60065234375,-152.33724975585938,65.93307495117188,-73.51939392089844
1779786629577750500,8.61075048828125,-152.24298095703125,65.79948425292969,-73.81877136230469
1779786629587849500,8.620849365234376,-152.27020263671875,65.6964111328125,-73.56675720214844
1779786629597948400,8.630948486328125,-152.06179809570312,65.79692077636719,-73.39404296875
1779786629608046600,8.641046630859375,-152.18490600585938,65.64984130859375,-73.91064453125
1779786629618145500,8.6511455078125,-152.31735229492188,65.92665100097656,-73.92697143554688
1779786629628242400,8.661242431640625,-152.38250732421875,65.77412414550781,-73.58515930175781
1779786629638339600,8.671339599609375,-152.62261962890625,65.46134948730469,-73.43655395507812
1779786629648437500,8.6814375,-152.3467559814453,65.63011169433594,-73.25547790527344
1779786629658535400,8.691535400390626,-152.19839477539062,65.65109252929688,-73.28463745117188
1779786629668633300,8.70163330078125,-152.49020385742188,65.30964660644531,-72.6588134765625
1779786629678730500,8.71173046875,-152.6153106689453,65.539306640625,-73.25102233886719
1779786629688827400,8.721827392578126,-153.1040802001953,65.56414794921875,-73.01193237304688
1779786629698926300,8.73192626953125,-153.2527618408203,65.47866821289062,-73.15777587890625
1779786629709023500,8.7420234375,-153.07704162597656,65.41572570800781,-73.37242126464844
1779786629719121400,8.752121337890625,-153.5025177001953,65.18777465820312,-73.06364440917969
1779786629729219300,8.76221923828125,-153.0635528564453,64.99160766601562,-73.1363525390625
1779786629739317500,8.7723173828125,-153.09228515625,65.12513732910156,-73.00535583496094
1779786629749416400,8.78241650390625,-152.85853576660156,65.20915222167969,-73.25119018554688
1779786629759515600,8.792515625,-153.07688903808594,65.24290466308594,-72.82350158691406
1779786629769614300,8.8026142578125,-152.62319946289062,65.40773010253906,-73.47909545898438
1779786629779712500,8.81271240234375,-152.7556610107422,65.13723754882812,-73.03559875488281
1779786629789811500,8.8228115234375,-153.13356018066406,65.17745971679688,-73.16549682617188
1779786629799911400,8.832911376953126,-152.27540588378906,65.17347717285156,-73.13677978515625
1779786629810011400,8.843011474609375,-152.6018524169922,65.11842346191406,-73.18350219726562
1779786629820110300,8.8531103515625,-152.318603515625,65.34808349609375,-73.25930786132812
1779786629830208500,8.86320849609375,-152.7141571044922,65.126708984375,-73.16694641113281
1779786629840307500,8.873307373046876,-152.8079833984375,65.20491027832031,-73.14961242675781
1779786629850406400,8.883406494140624,-152.66676330566406,65.34544372558594,-73.29136657714844
1779786629860505300,8.89350537109375,-152.77264404296875,65.08450317382812,-73.44659423828125
1779786629870603300,8.903603271484375,-152.3990020751953,65.1683349609375,-73.42410278320312
1779786629880701400,8.913701416015625,-152.3250274658203,65.11834716796875,-73.47378540039062
1779786629890799600,8.923799560546875,-152.37887573242188,65.18798828125,-73.57276916503906
1779786629900897500,8.9338974609375,-152.13963317871094,65.44790649414062,-73.3798828125
1779786629910995500,8.943995361328126,-152.41567993164062,65.21844482421875,-73.27128601074219
1779786629921093400,8.95409326171875,-152.33322143554688,65.41954040527344,-73.44039916992188
1779786629931192300,8.9641923828125,-152.4230499267578,65.19599914550781,-73.4515380859375
1779786629941289500,8.97428955078125,-152.93447875976562,65.40951538085938,-73.50144958496094
1779786629951386400,8.984386474609375,-152.81988525390625,65.40443420410156,-73.92819213867188
1779786629961484500,8.994484619140625,-153.0836181640625,65.1375732421875,-73.56111145019531
1779786629971582500,9.00458251953125,-152.35195922851562,65.44319152832031,-73.45783996582031
1779786629981680400,9.014680419921875,-152.17079162597656,65.1929931640625,-74.01986694335938
1779786629991780600,9.024780517578124,-152.282470703125,64.96681213378906,-74.12702941894531
1779786630001879600,9.034879638671875,-152.5098114013672,65.14376831054688,-73.79240417480469
1779786630011977500,9.0449775390625,-152.1559295654297,65.39161682128906,-73.64694213867188
1779786630022076400,9.055076416015625,-152.10043334960938,65.12342834472656,-73.8233642578125
1779786630032172500,9.065172607421875,-152.2041015625,65.50650024414062,-74.00703430175781
1779786630042270500,9.0752705078125,-153.29209899902344,65.37643432617188,-73.97833251953125
1779786630052369400,9.085369384765626,-152.15159606933594,65.64678955078125,-73.90147399902344
1779786630062468600,9.095468505859374,-152.33126831054688,65.68727111816406,-74.39752197265625
1779786630072565200,9.105565185546874,-152.37136840820312,65.54360961914062,-74.28204345703125
1779786630082663400,9.115663330078124,-152.31924438476562,65.57492065429688,-74.0084228515625
1779786630092761600,9.12576171875,-152.45928955078125,65.43881225585938,-74.36567687988281
1779786630102861300,9.135861328125,-152.37527465820312,65.79257202148438,-74.44964599609375
1779786630112960300,9.145960205078126,-152.08990478515625,65.37411499023438,-73.89254760742188
1779786630123058400,9.156058349609374,-152.37820434570312,65.41270446777344,-73.79403686523438
1779786630133157400,9.166157470703125,-152.37814331054688,65.58090209960938,-74.12783813476562
1779786630143256300,9.17625634765625,-151.67054748535156,65.5966796875,-73.85292053222656
1779786630153355300,9.186355224609375,-152.02516174316406,65.14756774902344,-73.99369812011719
1779786630163454500,9.196454345703126,-152.20863342285156,65.26741027832031,-73.6533203125
1779786630173553400,9.206553466796874,-152.1461944580078,65.39442443847656,-73.91062927246094
1779786630183650600,9.216650634765625,-152.28778076171875,65.27925109863281,-74.16319274902344
1779786630193749500,9.22674951171875,-152.0852813720703,65.42828369140625,-73.92417907714844
1779786630203847400,9.236847412109375,-152.2430877685547,65.63935852050781,-73.96183776855469
1779786630213945300,9.2469453125,-152.75238037109375,65.36091613769531,-73.872802734375
1779786630224043300,9.257043212890625,-152.31283569335938,65.49055480957031,-73.90904235839844
1779786630234141400,9.267141357421876,-152.29710388183594,65.39878845214844,-73.87873840332031
1779786630244240600,9.27724072265625,-152.3283233642578,65.63090515136719,-74.0377197265625
1779786630254337300,9.287337158203124,-152.20443725585938,65.47267150878906,-73.59832763671875
1779786630264435500,9.297435546875,-152.19944763183594,65.46144104003906,-73.60435485839844
1779786630274534400,9.307534423828125,-152.19436645507812,65.27532958984375,-73.84251403808594
1779786630284631600,9.317631591796875,-152.15438842773438,65.49864196777344,-73.90693664550781
1779786630294728400,9.327728515625,-151.8251190185547,65.5343017578125,-73.68801879882812
1779786630304826600,9.33782666015625,-152.29429626464844,65.45811462402344,-74.12255859375
1779786630314924500,9.347924560546875,-152.0538787841797,65.63075256347656,-74.13105773925781
1779786630325022500,9.3580224609375,-151.71177673339844,65.71495056152344,-74.09974670410156
1779786630335119400,9.368119384765626,-151.7112274169922,65.45124816894531,-74.27081298828125
1779786630345217500,9.378217529296874,-151.70291137695312,65.63761901855469,-73.82070922851562
1779786630355316500,9.38831640625,-151.5340118408203,65.72149658203125,-73.99301147460938
1779786630365412400,9.398412353515624,-151.755615234375,65.31440734863281,-73.84187316894531
1779786630375509500,9.408509521484374,-151.7017364501953,65.55891418457031,-73.81204223632812
1779786630385606400,9.4186064453125,-152.15773010253906,65.29463195800781,-74.22396850585938
1779786630395704600,9.42870458984375,-151.6792755126953,65.65188598632812,-74.22941589355469
1779786630405801500,9.438801513671875,-151.79364013671875,65.67420959472656,-74.41902160644531
1779786630415900400,9.448900390625,-151.83905029296875,65.60676574707031,-74.01318359375
1779786630425998300,9.458998291015625,-152.2484893798828,65.55998229980469,-73.87652587890625
1779786630436094500,9.469094482421875,-152.2237548828125,65.13003540039062,-73.60548400878906
1779786630446194400,9.4791943359375,-151.9870147705078,65.54339599609375,-73.96696472167969
1779786630456292400,9.489292236328126,-151.98348999023438,65.75869750976562,-73.32156372070312
1779786630466390300,9.499390380859374,-151.78445434570312,65.7889404296875,-73.50259399414062
1779786630476488400,9.509488525390625,-151.84120178222656,65.62699890136719,-73.87384033203125
1779786630486587600,9.519587646484375,-152.11814880371094,65.65219116210938,-73.90641784667969
1779786630496686300,9.529686279296875,-151.52407836914062,65.67343139648438,-73.90054321289062
1779786630506786300,9.539786376953124,-151.8341064453125,65.40275573730469,-74.16584777832031
1779786630516884200,9.54988427734375,-152.19190979003906,65.407470703125,-73.68780517578125
1779786630526983400,9.5599833984375,-151.86285400390625,65.12586975097656,-73.57164001464844
1779786630537082400,9.570082275390625,-151.94654846191406,64.85394287109375,-73.51692199707031
1779786630547180300,9.58018017578125,-151.54489135742188,65.37449645996094,-73.17398071289062
1779786630557279200,9.590279296875,-151.50267028808594,65.24691772460938,-73.484619140625
1779786630567377400,9.60037744140625,-151.944580078125,65.30410766601562,-73.40672302246094
1779786630577474300,9.610474365234374,-151.5140380859375,65.1220703125,-73.73469543457031
1779786630587571500,9.620571533203124,-151.3666229248047,65.25588989257812,-73.45309448242188
1779786630597667300,9.630667236328126,-151.7674560546875,65.20426940917969,-73.71806335449219
1779786630607763500,9.640763427734376,-151.88433837890625,65.25559997558594,-73.19451904296875
1779786630617860400,9.6508603515625,-151.6580810546875,65.21206665039062,-73.1519775390625
1779786630627958500,9.66095849609375,-151.63914489746094,65.00392150878906,-73.53224182128906
1779786630638054400,9.671054443359376,-151.42115783691406,65.12310791015625,-73.30589294433594
1779786630648151300,9.6811513671875,-151.37046813964844,65.0882568359375,-73.8145751953125
1779786630658248400,9.69124853515625,-151.46029663085938,65.15364074707031,-73.6856689453125
1779786630668345300,9.701345458984376,-151.6509552001953,64.89718627929688,-73.86477661132812
1779786630678441500,9.71144140625,-151.51275634765625,65.53193664550781,-73.64404296875
1779786630688539400,9.721539306640626,-151.12646484375,65.38739013671875,-73.45790100097656
1779786630698637600,9.731637451171874,-151.58596801757812,65.38896179199219,-74.11309814453125
1779786630708736500,9.741736572265625,-151.05677795410156,65.67172241210938,-73.73915100097656
1779786630718833400,9.75183349609375,-150.78720092773438,65.2523193359375,-73.48091125488281
1779786630728933400,9.761933349609375,-150.41334533691406,65.37338256835938,-73.64430236816406
1779786630739030300,9.7720302734375,-151.10504150390625,65.40843200683594,-73.92080688476562
1779786630749129500,9.78212939453125,-151.37889099121094,65.15888977050781,-74.11329650878906
1779786630759227400,9.792227294921876,-151.72218322753906,65.26924133300781,-74.0626220703125
1779786630769324500,9.802324462890626,-151.7800750732422,65.4544677734375,-73.88644409179688
1779786630779422500,9.81242236328125,-151.20899963378906,65.28941345214844,-73.98515319824219
1779786630789520400,9.822520263671874,-151.8289794921875,65.15147399902344,-74.32572937011719
1779786630799618600,9.83261865234375,-151.9899444580078,65.11265563964844,-74.26219177246094
1779786630809715500,9.842715576171875,-151.68063354492188,65.01393127441406,-74.16865539550781
1779786630819810300,9.852810302734374,-151.75225830078125,65.12034606933594,-74.23872375488281
1779786630829908500,9.862908447265625,-151.7403106689453,65.17050170898438,-73.74430847167969
1779786630840006400,9.87300634765625,-151.4886932373047,65.46449279785156,-73.88539123535156
1779786630850104300,9.883104248046875,-151.4800567626953,65.32508850097656,-74.30181884765625
1779786630860201700,9.89320166015625,-151.67678833007812,65.22393798828125,-73.89041137695312
1779786630870300700,9.90330078125,-152.0360107421875,65.26718139648438,-74.09068298339844
1779786630880399000,9.913399169921876,-152.20742797851562,65.34373474121094,-74.29762268066406
1779786630890497000,9.9234970703125,-152.07833862304688,65.06547546386719,-74.27272033691406
1779786630900595000,9.933594970703124,-151.7293243408203,65.120849609375,-74.23539733886719
1779786630910694000,9.94369384765625,-151.89256286621094,65.22825622558594,-74.25239562988281
1779786630920790800,9.953790771484375,-151.88406372070312,64.88813781738281,-74.12924194335938
1779786630930889000,9.963888916015625,-151.9149627685547,64.98797607421875,-74.05427551269531
1779786630940987000,9.97398681640625,-151.98248291015625,65.25369262695312,-73.73661804199219
1779786630951084800,9.984084716796875,-151.7027587890625,64.97537231445312,-73.62469482421875
1779786630961182000,9.994181884765625,-152.03744506835938,64.91789245605469,-73.96624755859375
1779786630971280000,10.00427978515625,-151.7586212158203,65.12840270996094,-73.76820373535156
1779786630981376800,10.014376708984376,-151.7100067138672,64.85186767578125,-74.15187072753906
1779786630991475000,10.024474853515626,-151.9534454345703,65.2247314453125,-73.92593383789062
1779786631001572900,10.03457275390625,-152.353515625,64.90193176269531,-74.07151794433594
1779786631011669800,10.044669677734374,-152.61492919921875,65.03680419921875,-73.89353942871094
1779786631021768000,10.054767822265624,-151.99404907226562,65.25328063964844,-74.16224670410156
1779786631031867000,10.064866943359375,-151.89718627929688,65.24990844726562,-73.839111328125
1779786631041964800,10.07496484375,-151.6179656982422,65.1724853515625,-74.02236938476562
1779786631052061700,10.085061767578125,-151.9649200439453,65.15632629394531,-73.87010192871094
1779786631062160000,10.095159912109375,-151.79132080078125,65.25827026367188,-73.91587829589844
1779786631072258000,10.105258056640626,-151.7609405517578,65.07980346679688,-73.99720764160156
1779786631082356000,10.11535595703125,-151.9167938232422,65.09860229492188,-73.98234558105469
1779786631092454000,10.125453857421874,-151.88673400878906,64.7783203125,-73.87466430664062
1779786631102551000,10.135551025390624,-152.03326416015625,64.88127136230469,-74.00845336914062
1779786631112647700,10.145647705078124,-151.624267578125,64.86344909667969,-73.73944091796875
1779786631122744800,10.155744873046874,-151.87911987304688,64.85140991210938,-73.97402954101562
1779786631132841700,10.165841796875,-151.3663330078125,64.9261474609375,-74.28561401367188
1779786631142939000,10.17593896484375,-151.22291564941406,64.89312744140625,-73.95835876464844
1779786631153035000,10.186034912109376,-151.52284240722656,64.99546813964844,-73.9932861328125
1779786631163132000,10.1961318359375,-151.1983184814453,64.94134521484375,-74.3172607421875
1779786631173229800,10.206229736328124,-151.36082458496094,64.93511962890625,-74.02926635742188
1779786631183325700,10.21632568359375,-150.8414306640625,64.7008056640625,-74.33631896972656
1779786631193421800,10.226421875,-151.4003143310547,64.90744018554688,-74.14584350585938
1779786631203519000,10.23651904296875,-151.2716064453125,64.47146606445312,-73.81452941894531
1779786631213617000,10.246616943359374,-151.07489013671875,64.88075256347656,-74.18415832519531
1779786631223713800,10.2567138671875,-151.65782165527344,64.98583984375,-74.15371704101562
1779786631233811000,10.26681103515625,-151.83938598632812,64.99299621582031,-74.07102966308594
1779786631243908900,10.276908935546874,-151.62484741210938,65.02381896972656,-73.84024047851562
1779786631254006800,10.2870068359375,-151.39370727539062,65.22328186035156,-73.74862670898438
1779786631264104000,10.29710400390625,-151.39437866210938,65.17002868652344,-74.35820007324219
1779786631274201900,10.307201904296875,-151.6683807373047,65.18585205078125,-74.01519775390625
1779786631284300800,10.31730078125,-151.42420959472656,65.14241027832031,-74.32203674316406
1779786631294398000,10.32739794921875,-151.651611328125,65.13130187988281,-73.79458618164062
1779786631304493000,10.3374931640625,-151.7540283203125,64.87199401855469,-73.60708618164062
1779786631314588700,10.347588623046875,-151.17263793945312,65.06658935546875,-73.97528076171875
1779786631324685800,10.357685791015625,-151.15859985351562,65.24726867675781,-74.10499572753906
1779786631334783700,10.36778369140625,-151.44471740722656,64.79562377929688,-73.89958190917969
1779786631344879900,10.3778798828125,-151.63058471679688,64.97900390625,-74.15249633789062
1779786631354976800,10.387976806640625,-151.9011993408203,64.978759765625,-74.201904296875
1779786631365073000,10.398072998046874,-151.89317321777344,64.32405090332031,-73.86347961425781
1779786631375168800,10.408168701171874,-152.2331085205078,64.96467590332031,-74.00245666503906
1779786631385265000,10.418264892578126,-152.33396911621094,64.65333557128906,-74.05519104003906
1779786631395360000,10.428360107421875,-152.1473388671875,64.62644958496094,-73.85911560058594
1779786631405456000,10.438455810546875,-151.89987182617188,64.71717834472656,-73.79241943359375
1779786631415552800,10.448552734375,-151.79238891601562,64.68827819824219,-74.1376953125
1779786631425651000,10.45865087890625,-151.80181884765625,64.7509765625,-74.39144897460938
1779786631435747800,10.468747802734375,-152.31072998046875,64.838134765625,-74.06434631347656
1779786631445844000,10.478843994140625,-151.8673858642578,64.53207397460938,-73.75398254394531
1779786631455939800,10.48893994140625,-151.98284912109375,64.84275817871094,-73.89706420898438
1779786631466036000,10.499035888671875,-151.9070281982422,64.53097534179688,-74.20967102050781
1779786631476131800,10.5091318359375,-151.61892700195312,64.79815673828125,-73.86521911621094
1779786631486229000,10.51922900390625,-151.87464904785156,64.96810913085938,-73.87370300292969
1779786631496326000,10.529325927734375,-151.88748168945312,64.82789611816406,-73.65000915527344
1779786631506423000,10.539423095703125,-151.812255859375,64.908203125,-73.99539184570312
1779786631516519700,10.549519775390625,-151.97320556640625,64.82073974609375,-73.36177062988281
1779786631526614800,10.55961474609375,-151.67344665527344,64.52046203613281,-73.47068786621094
1779786631536712000,10.5697119140625,-151.7055206298828,64.75750732421875,-73.91549682617188
1779786631546806800,10.579806884765626,-151.42471313476562,64.89588928222656,-73.51692199707031
1779786631556903000,10.58990283203125,-151.8552703857422,64.64053344726562,-73.78883361816406
1779786631566999000,10.5999990234375,-151.8440399169922,64.79594421386719,-73.64732360839844
1779786631577096000,10.610095947265625,-151.4386444091797,64.94859313964844,-73.51495361328125
1779786631587191800,10.62019189453125,-151.32781982421875,64.9066162109375,-73.93778991699219
1779786631597289700,10.630289794921875,-151.4991455078125,65.03834533691406,-73.71708679199219
1779786631607385900,10.6403857421875,-151.34825134277344,64.93223571777344,-73.7760009765625
1779786631617483800,10.65048388671875,-151.74423217773438,64.8663330078125,-73.71354675292969
1779786631627582700,10.660582763671876,-151.97689819335938,64.80999755859375,-73.60490417480469
1779786631637679900,10.670679931640626,-151.87155151367188,64.60887145996094,-73.80448913574219
1779786631647776800,10.68077685546875,-151.6620635986328,64.86344909667969,-73.96382141113281
1779786631657875000,10.690875,-151.48025512695312,65.03466796875,-73.85700988769531
1779786631667971800,10.700971923828124,-152.22901916503906,64.76808166503906,-73.82260131835938
1779786631678067000,10.71106689453125,-151.7308349609375,65.00686645507812,-74.06228637695312
1779786631688162800,10.721162841796875,-151.85433959960938,64.94326782226562,-73.84111022949219
1779786631698260700,10.7312607421875,-151.76528930664062,65.11094665527344,-73.98782348632812
1779786631708359000,10.74135888671875,-151.71286010742188,65.16107177734375,-73.87565612792969
1779786631718457000,10.75145703125,-151.53216552734375,64.65687561035156,-73.88475036621094
1779786631728555000,10.761554931640624,-151.74859619140625,64.85214233398438,-73.91256713867188
1779786631738653000,10.77165283203125,-151.5724639892578,65.25083923339844,-74.02732849121094
1779786631748748800,10.781748779296874,-151.81607055664062,65.14097595214844,-74.20555114746094
1779786631758847000,10.791846923828125,-151.33375549316406,64.89968872070312,-74.1290283203125
1779786631768945000,10.80194482421875,-151.82901000976562,64.90374755859375,-74.1490478515625
1779786631779043000,10.81204296875,-151.48666381835938,64.64091491699219,-74.06500244140625
1779786631789141000,10.82214111328125,-151.84303283691406,64.9986572265625,-74.20298767089844
1779786631799239000,10.832239013671876,-151.78314208984375,64.72732543945312,-73.87162780761719
1779786631809336000,10.842336181640626,-152.09487915039062,64.94178771972656,-74.32183837890625
1779786631819431700,10.852431640625,-151.88429260253906,64.9136962890625,-74.57170104980469
1779786631829528800,10.86252880859375,-151.72979736328125,64.69332885742188,-74.82034301757812
1779786631839625000,10.872625,-152.13304138183594,64.44377136230469,-74.43307495117188
1779786631849721900,10.882721923828125,-151.71652221679688,64.595458984375,-74.56520080566406
1779786631859817200,10.892817138671875,-151.41360473632812,64.66712951660156,-74.44638061523438
1779786631869914400,10.902914306640625,-151.86538696289062,64.681640625,-74.22293090820312
1779786631880012300,10.91301220703125,-151.91567993164062,64.50125122070312,-74.02810668945312
1779786631890109200,10.923109130859375,-151.74185180664062,64.53291320800781,-74.39877319335938
1779786631900205300,10.933205322265625,-151.54867553710938,64.50100708007812,-74.23770141601562
1779786631910301200,10.94330126953125,-151.51914978027344,64.73101806640625,-74.37196350097656
1779786631920398300,10.9533984375,-151.5341339111328,64.40071105957031,-74.68086242675781
1779786631930495200,10.9634951171875,-151.3974151611328,64.46922302246094,-74.35018920898438
1779786631940592400,10.97359228515625,-151.3151397705078,64.59242248535156,-74.35441589355469
1779786631950690300,10.983690185546875,-151.29188537597656,64.52693176269531,-74.46197509765625
1779786631960787200,10.993787109375,-151.23092651367188,64.78280639648438,-74.60568237304688
1779786631970884400,11.00388427734375,-151.4956512451172,64.10749816894531,-74.2828369140625
1779786631980980200,11.013980224609375,-151.8086700439453,64.57164001464844,-74.30810546875
1779786631991075300,11.024075439453124,-151.66209411621094,64.31809997558594,-74.38241577148438
1779786632001172200,11.034172119140624,-151.05288696289062,64.35121154785156,-74.14344787597656
1779786632011269400,11.044269287109374,-151.6790313720703,64.44802856445312,-74.16377258300781
1779786632021365200,11.054365234375,-151.58505249023438,64.21112060546875,-74.01339721679688
1779786632031462100,11.064462158203124,-151.4326171875,64.44723510742188,-74.13606262207031
1779786632041558300,11.074558349609376,-150.87796020507812,64.73736572265625,-74.19813537597656
1779786632051656200,11.08465625,-150.95486450195312,64.83033752441406,-74.13388061523438
1779786632061753300,11.09475341796875,-151.21063232421875,64.71881103515625,-73.96551513671875
1779786632071851300,11.104851318359374,-150.27151489257812,64.66360473632812,-73.88670349121094
1779786632081948200,11.1149482421875,-151.243408203125,64.51119995117188,-74.13726806640625
1779786632092046300,11.12504638671875,-150.42190551757812,64.82809448242188,-74.13636779785156
1779786632102144300,11.135144287109375,-150.4444580078125,64.64241027832031,-73.99958801269531
1779786632112242200,11.1452421875,-150.75942993164062,64.49473571777344,-74.1549072265625
1779786632122340000,11.155340087890625,-150.712890625,64.94393920898438,-74.14971923828125
1779786632132439300,11.165439208984376,-151.14337158203125,65.09466552734375,-74.2620849609375
1779786632142536200,11.1755361328125,-150.95033264160156,65.29275512695312,-74.43539428710938
1779786632152633000,11.185633056640626,-150.532470703125,65.17962646484375,-74.56951904296875
1779786632162730200,11.195730224609376,-150.81942749023438,65.38883972167969,-74.17422485351562
1779786632172828200,11.205828125,-150.7732391357422,65.5382080078125,-74.35763549804688
1779786632182925300,11.21592529296875,-151.08645629882812,65.22984313964844,-74.91848754882812
1779786632193023200,11.226023193359374,-150.31968688964844,65.50187683105469,-74.6353759765625
1779786632203120000,11.2361201171875,-150.87669372558594,65.31132507324219,-74.58721923828125
1779786632213218300,11.24621826171875,-151.0215301513672,65.36026000976562,-74.2783203125
1779786632223317200,11.256317138671875,-151.42037963867188,65.32196044921875,-75.05155944824219
1779786632233416200,11.266416259765625,-151.09600830078125,65.15011596679688,-74.94807434082031
1779786632243515100,11.27651513671875,-151.21078491210938,65.3905029296875,-74.79248046875
1779786632253615400,11.286615478515625,-151.56906127929688,65.13494873046875,-74.87770080566406
1779786632263713300,11.29671337890625,-151.6757049560547,65.07572937011719,-75.04495239257812
1779786632273811500,11.3068115234375,-151.81285095214844,65.26510620117188,-74.84854125976562
1779786632283910400,11.316910400390626,-151.349609375,64.93058776855469,-74.84829711914062
1779786632294008300,11.32700830078125,-151.77232360839844,65.07687377929688,-74.83673095703125
1779786632304106200,11.337106201171874,-151.68984985351562,64.89682006835938,-74.6044921875
1779786632314203100,11.347203125,-152.34791564941406,64.95372009277344,-74.66102600097656
1779786632324302000,11.357302001953125,-151.81314086914062,64.3997802734375,-74.91073608398438
1779786632334401300,11.3674013671875,-151.64649963378906,64.60372924804688,-74.637451171875
1779786632344499500,11.37749951171875,-151.89120483398438,64.77984619140625,-74.82267761230469
1779786632354598400,11.387598388671876,-151.25595092773438,64.79696655273438,-74.32675170898438
1779786632364695300,11.3976953125,-152.19479370117188,64.94792175292969,-74.10113525390625
1779786632374794200,11.407794189453124,-151.85220336914062,64.52467346191406,-74.51496887207031
1779786632384892200,11.41789208984375,-151.2060546875,64.60069274902344,-74.03831481933594
1779786632394989300,11.4279892578125,-151.83030700683594,64.5382080078125,-73.97224426269531
1779786632405086200,11.438086181640625,-152.06068420410156,64.49378967285156,-73.98866271972656
1779786632415183400,11.448183349609375,-151.9107208251953,64.37344360351562,-73.94685363769531
1779786632425280300,11.4582802734375,-151.86700439453125,64.48245239257812,-74.173095703125
1779786632435377400,11.46837744140625,-151.50933837890625,64.53849792480469,-73.70982360839844
1779786632445475300,11.478475341796875,-151.7174072265625,64.63873291015625,-73.62359619140625
1779786632455573200,11.4885732421875,-151.41429138183594,64.55130004882812,-73.53337097167969
1779786632465671400,11.49867138671875,-151.8655242919922,64.55929565429688,-73.81649780273438
1779786632475769300,11.508769287109375,-151.52308654785156,64.42280578613281,-73.51063537597656
1779786632485868300,11.518868408203126,-151.25250244140625,64.40933227539062,-74.00602722167969
1779786632495966200,11.52896630859375,-151.274169921875,64.28619384765625,-73.63200378417969
1779786632506063000,11.53906298828125,-151.6953582763672,64.52845764160156,-73.69111633300781
1779786632516161300,11.549161376953125,-151.22665405273438,64.47869873046875,-73.85737609863281
1779786632526259200,11.55925927734375,-151.3230438232422,64.37330627441406,-73.87940979003906
1779786632536357000,11.569357177734375,-151.0746612548828,64.3115234375,-73.69352722167969
1779786632546454300,11.579454345703125,-151.3349151611328,64.50169372558594,-73.76434326171875
1779786632556551200,11.58955126953125,-151.21926879882812,64.8101806640625,-73.68339538574219
1779786632566647300,11.599647216796875,-150.719970703125,64.58174133300781,-73.44976806640625
1779786632576744200,11.609744140625,-150.80001831054688,64.55511474609375,-73.41290283203125
1779786632586842400,11.61984228515625,-150.89613342285156,64.42117309570312,-73.67337036132812
1779786632596939300,11.629939208984375,-150.72203063964844,64.66323852539062,-73.35543823242188
1779786632607037200,11.640037109375,-150.93630981445312,64.41339111328125,-73.98974609375
1779786632617135400,11.65013525390625,-150.8490447998047,64.37300109863281,-73.71151733398438
1779786632627233300,11.6602333984375,-150.9051971435547,64.52165222167969,-73.71336364746094
1779786632637331200,11.670331298828126,-150.91510009765625,64.65000915527344,-73.2882080078125
1779786632647430100,11.68043017578125,-151.06158447265625,64.82888793945312,-73.80874633789062
1779786632657528000,11.690528076171875,-150.75299072265625,64.58090209960938,-73.88850402832031
1779786632667625200,11.700625244140625,-151.16021728515625,64.52604675292969,-73.92283630371094
1779786632677723100,11.71072314453125,-151.26502990722656,64.82394409179688,-73.44200134277344
1779786632687821000,11.720821044921875,-151.11297607421875,64.82740783691406,-73.45161437988281
1779786632697920300,11.730920166015625,-150.3750762939453,64.51441955566406,-73.20733642578125
1779786632708019200,11.741019287109374,-151.27169799804688,64.64888000488281,-73.26800537109375
1779786632718118100,11.7511181640625,-151.41580200195312,64.83050537109375,-73.28948974609375
1779786632728217300,11.76121728515625,-150.7340087890625,64.54249572753906,-73.19139099121094
1779786632738315300,11.771315185546875,-151.1075439453125,64.71003723144531,-73.05441284179688
1779786632748412400,11.781412353515625,-151.84898376464844,64.45393371582031,-73.45317077636719
1779786632758508300,11.79150830078125,-151.25413513183594,64.76701354980469,-73.3648681640625
1779786632768606200,11.801606201171875,-151.19415283203125,64.01692199707031,-73.49574279785156
1779786632778703000,11.811703125,-151.10328674316406,64.13169860839844,-73.23976135253906
1779786632788802000,11.821802001953126,-151.01126098632812,64.24360656738281,-73.31106567382812
1779786632798900500,11.831900390625,-151.1592254638672,64.06629943847656,-73.22523498535156
1779786632808996000,11.84199609375,-150.54042053222656,64.22344970703125,-73.55232238769531
1779786632819094300,11.85209423828125,-150.5955047607422,63.885833740234375,-73.59194946289062
1779786632829191200,11.862191162109376,-151.1836395263672,63.84632873535156,-73.65235900878906
1779786632839287300,11.872287353515626,-150.85995483398438,63.797119140625,-73.49563598632812
1779786632849384200,11.88238427734375,-151.1304168701172,63.999786376953125,-73.25436401367188
1779786632859481600,11.892481689453126,-150.95278930664062,63.914154052734375,-73.47030639648438
1779786632869577700,11.90257763671875,-151.25694274902344,63.99244689941406,-73.10533142089844
1779786632879673600,11.912673583984375,-150.80043029785156,64.09222412109375,-73.59707641601562
1779786632889771800,11.922771728515626,-151.20765686035156,63.688140869140625,-73.42987060546875
1779786632899868700,11.93286865234375,-151.1826171875,63.8280029296875,-73.62016296386719
1779786632909965800,11.9429658203125,-150.924560546875,63.923095703125,-73.6322021484375
1779786632920062500,11.9530625,-151.14260864257812,63.76667785644531,-73.24795532226562
1779786632930159600,11.96315966796875,-151.1366424560547,63.99566650390625,-73.38163757324219
1779786632940257500,11.973257568359376,-151.2329864501953,63.759490966796875,-73.26327514648438
1779786632950354700,11.983354736328126,-150.8869171142578,63.91011047363281,-73.21672058105469
1779786632960451600,11.99345166015625,-151.6927947998047,63.69221496582031,-73.14155578613281
1779786632970548700,12.003548828125,-151.37384033203125,63.73017883300781,-73.15573120117188
1779786632980642600,12.013642578125,-151.23533630371094,63.389190673828125,-73.37300109863281
1779786632990738700,12.02373876953125,-150.94830322265625,63.56535339355469,-73.18721008300781
1779786633000834800,12.033834716796875,-151.3231964111328,63.63685607910156,-72.78190612792969
1779786633010930400,12.043930419921875,-151.21994018554688,63.69737243652344,-72.97215270996094
1779786633021028600,12.054028564453125,-151.23724365234375,63.55754089355469,-72.92124938964844
1779786633031125500,12.06412548828125,-151.09507751464844,63.52293395996094,-72.98483276367188
1779786633041221600,12.0742216796875,-150.9863739013672,63.68089294433594,-73.02786254882812
1779786633051318500,12.084318603515625,-151.03347778320312,63.73115539550781,-72.78153991699219
1779786633061414700,12.09441455078125,-151.22317504882812,63.71119689941406,-73.63746643066406
1779786633071512600,12.1045126953125,-150.94638061523438,63.40287780761719,-73.53897094726562
1779786633081609700,12.114609619140625,-151.51177978515625,63.637176513671875,-73.38479614257812
1779786633091707600,12.124707763671875,-151.15721130371094,63.693389892578125,-73.55526733398438
1779786633101803500,12.134803466796875,-150.8253936767578,63.50199890136719,-73.79986572265625
1779786633111900700,12.144900634765625,-150.90267944335938,64.02619934082031,-73.56184387207031
1779786633121996500,12.15499658203125,-150.746337890625,63.63960266113281,-74.12681579589844
1779786633132093700,12.16509375,-150.85462951660156,64.0029296875,-74.0198974609375
1779786633142189800,12.17518994140625,-151.00177001953125,63.98876953125,-74.08381652832031
1779786633152286500,12.185286376953124,-151.03355407714844,63.853240966796875,-73.83688354492188
1779786633162384600,12.195384521484375,-150.9951629638672,63.90142822265625,-73.92457580566406
1779786633172481500,12.2054814453125,-150.7184600830078,63.92271423339844,-73.70144653320312
1779786633182579500,12.215579345703125,-150.6800994873047,63.64430236816406,-74.17744445800781
1779786633192676600,12.225676513671875,-150.35716247558594,64.04389953613281,-73.74116516113281
1779786633202772700,12.235772705078125,-151.38209533691406,64.12005615234375,-73.63934326171875
1779786633212869600,12.24586962890625,-151.2629852294922,64.28889465332031,-73.80670166015625
1779786633222964500,12.255964599609374,-150.99484252929688,63.904541015625,-73.79315185546875
1779786633233061600,12.2660615234375,-151.43324279785156,63.95497131347656,-73.41261291503906
1779786633243158500,12.276158447265624,-150.79672241210938,64.18214416503906,-73.94612121582031
1779786633253254700,12.286254638671876,-151.34457397460938,63.97105407714844,-74.08912658691406
1779786633263351600,12.2963515625,-151.2276611328125,64.18380737304688,-73.95022583007812
1779786633273448700,12.30644873046875,-151.38525390625,64.16194152832031,-74.07145690917969
1779786633283546600,12.316546630859374,-151.3734588623047,64.41996765136719,-73.95309448242188
1779786633293643800,12.326643798828124,-151.63539123535156,64.33580017089844,-74.27914428710938
1779786633303740700,12.33674072265625,-151.26846313476562,64.18128967285156,-73.95658874511719
1779786633313837600,12.346837646484374,-151.00340270996094,64.06233215332031,-73.80410766601562
1779786633323933700,12.35693359375,-151.17031860351562,64.31864929199219,-73.97396850585938
1779786633334030600,12.367030517578126,-151.30349731445312,64.04954528808594,-73.697265625
1779786633344125700,12.377125732421876,-151.36190795898438,64.17720031738281,-73.510986328125
1779786633354220500,12.387220458984375,-151.34085083007812,64.10435485839844,-74.13899230957031
1779786633364316700,12.397316650390625,-150.83433532714844,64.20176696777344,-73.49143981933594
1779786633374413800,12.407413818359375,-151.6317901611328,64.15216064453125,-73.75941467285156
1779786633384509400,12.417509521484375,-151.8630828857422,63.6983642578125,-73.72666931152344
1779786633394606600,12.427606689453125,-151.6528778076172,63.51402282714844,-73.90377807617188
1779786633404702700,12.43770263671875,-151.70535278320312,63.39715576171875,-73.91720581054688
1779786633414798800,12.447798828125,-152.1971893310547,63.72111511230469,-74.19216918945312
1779786633424895500,12.4578955078125,-152.1207275390625,63.342437744140625,-73.58486938476562
1779786633434991600,12.46799169921875,-152.56527709960938,63.28984069824219,-73.61907958984375
1779786633445086700,12.478086669921876,-152.06666564941406,63.25199890136719,-74.22781372070312
1779786633455181600,12.488181640625,-151.73158264160156,63.21165466308594,-74.35237121582031
1779786633465277700,12.498277587890625,-151.8026580810547,63.23602294921875,-74.13723754882812
1779786633475373800,12.508373779296875,-151.9395294189453,63.15589904785156,-74.28952026367188
1779786633485470500,12.518470458984375,-152.11241149902344,63.30723571777344,-74.15853881835938
1779786633495568600,12.528568603515625,-152.3511962890625,63.201629638671875,-74.25984191894531
1779786633505666800,12.538666748046875,-152.22950744628906,63.25030517578125,-73.90618896484375
1779786633515764700,12.5487646484375,-151.8196258544922,63.368896484375,-73.87982177734375
1779786633525862700,12.558862548828126,-152.00119018554688,63.36505126953125,-73.95330810546875
1779786633535959800,12.568959716796876,-152.1077423095703,63.13311767578125,-73.85508728027344
1779786633546057700,12.5790576171875,-152.35906982421875,63.24143981933594,-74.01602172851562
1779786633556155600,12.58915576171875,-152.17579650878906,62.96138000488281,-74.11549377441406
1779786633566253600,12.599253662109374,-152.19540405273438,63.374053955078125,-73.8974609375
1779786633576350700,12.609350830078125,-152.120849609375,63.26666259765625,-74.1595458984375
1779786633586447600,12.619447509765624,-152.0293426513672,63.23406982421875,-73.74571228027344
1779786633596544800,12.629544677734375,-151.84652709960938,63.50233459472656,-73.97378540039062
1779786633606640600,12.639640625,-151.48721313476562,63.8355712890625,-73.78067016601562
1779786633616737500,12.649737548828124,-151.45321655273438,63.73377990722656,-73.61531066894531
1779786633626832600,12.65983251953125,-151.59710693359375,63.5323486328125,-73.8984375
1779786633636928500,12.669928466796875,-151.2606658935547,63.494903564453125,-74.02055358886719
1779786633647024600,12.680024658203125,-151.2910919189453,63.4368896484375,-74.44462585449219
1779786633657120800,12.690120849609375,-151.69837951660156,63.6656494140625,-74.05781555175781
1779786633667215600,12.700215576171875,-151.35586547851562,63.52830505371094,-74.23738098144531
1779786633677311700,12.710311767578125,-151.54949951171875,63.66560363769531,-73.94779968261719
1779786633687407600,12.72040771484375,-151.0587921142578,63.86436462402344,-73.91152954101562
1779786633697504500,12.73050439453125,-150.89614868164062,63.98927307128906,-74.187744140625
1779786633707601700,12.7406015625,-150.6935272216797,63.94146728515625,-73.9439697265625
1779786633717697500,12.750697509765626,-150.75503540039062,63.60777282714844,-73.75408935546875
1779786633727793700,12.760793701171876,-151.1706085205078,63.59220886230469,-74.05989074707031
1779786633737889500,12.7708896484375,-150.96878051757812,63.54914855957031,-73.90409851074219
1779786633747987700,12.78098779296875,-150.69432067871094,63.33033752441406,-74.06639099121094
1779786633758084600,12.791084716796876,-150.89549255371094,63.69891357421875,-74.16435241699219
1779786633768182800,12.801182861328124,-150.9779815673828,63.63880920410156,-74.20162963867188
1779786633778279400,12.811279541015624,-151.32965087890625,63.8837890625,-73.98307800292969
1779786633788376600,12.82137646484375,-151.15403747558594,63.44694519042969,-74.37570190429688
1779786633798473500,12.831473388671874,-150.84693908691406,63.60548400878906,-74.19056701660156
1779786633808570600,12.841570556640624,-151.41668701171875,63.86869812011719,-74.30821228027344
1779786633818666800,12.851666748046876,-150.70445251464844,64.03462219238281,-74.19461059570312
1779786633828762600,12.8617626953125,-151.11004638671875,64.05316162109375,-74.51470947265625
1779786633838859500,12.871859619140626,-150.9210968017578,63.69963073730469,-74.46038818359375
1779786633848956700,12.881956787109376,-150.87513732910156,63.80497741699219,-74.52485656738281
1779786633859053600,12.892053466796876,-151.60577392578125,63.76348876953125,-74.34921264648438
1779786633869150700,12.902150634765626,-151.2401885986328,63.671600341796875,-74.00993347167969
1779786633879248600,12.91224853515625,-151.05215454101562,63.81065368652344,-74.21304321289062
1779786633889344800,12.9223447265625,-151.1680145263672,63.53656005859375,-74.603515625
1779786633899441700,12.932441650390626,-150.7196807861328,63.909515380859375,-74.38475036621094
1779786633909538800,12.942538818359376,-151.2987060546875,63.91648864746094,-74.16650390625
1779786633919637800,12.9526376953125,-150.97251892089844,63.884521484375,-74.30622863769531
1779786633929732600,12.962732666015626,-151.1613006591797,63.59196472167969,-74.18408203125
1779786633939829500,12.97282958984375,-151.15687561035156,63.52641296386719,-74.33674621582031
1779786633949925600,12.982925537109375,-151.2050323486328,64.08079528808594,-74.20516967773438
1779786633960022800,12.993022705078126,-151.47879028320312,63.53169250488281,-73.916259765625
1779786633970119700,13.00311962890625,-151.05728149414062,63.58258056640625,-73.9034423828125
1779786633980215800,13.0132158203125,-151.06765747070312,63.63153076171875,-73.87748718261719
